File: tensile/test_1.is_qtest_Exports/test_1_6.csv
Time,Displacement,Force
(s),(mm),(kgf)
"0.0000","0.0000","0.0015"
"0.1000","0.0568","0.0007"
"0.2000","0.1382","0.0090"
"0.3000","0.2207","0.0136"
"0.4000","0.3033","0.0205"
"0.5000","0.3880","0.0267"
"0.6000","0.4692","0.0320"
"0.7000","0.5534","0.0391"
"0.8000","0.6359","0.0437"
"0.9000","0.7194","0.0507"
"1.0000","0.8039","0.0553"
"1.1000","0.8863","0.0620"
"1.2000","0.9695","0.0666"
"1.3000","1.0531","0.0730"
"1.4000","1.1352","0.0774"
"1.5000","1.2205","0.0831"
"1.6000","1.3032","0.0883"
"1.7000","1.3876","0.0931"
"1.8000","1.4689","0.0989"
"1.9000","1.5516","0.1028"
"2.0000","1.6372","0.1087"
"2.1000","1.7198","0.1129"
"2.2000","1.8038","0.1182"
"2.3000","1.8863","0.1231"
"2.4000","1.9692","0.1277"
"2.5000","2.0529","0.1326"
"2.6000","2.1356","0.1371"
"2.7000","2.2199","0.1419"
"2.8000","2.3041","0.1469"
"2.9000","2.3855","0.1512"
"3.0000","2.4701","0.1560"
"3.1000","2.5523","0.1605"
"3.2000","2.6370","0.1649"
"3.3000","2.7198","0.1698"
"3.4000","2.8029","0.1738"
"3.5000","2.8876","0.1789"
"3.6000","2.9693","0.1831"
"3.7000","3.0530","0.1875"
"3.8000","3.1360","0.1922"
"3.9000","3.2197","0.1963"
"4.0000","3.3037","0.2011"
"4.1000","3.3862","0.2054"
"4.2000","3.4697","0.2098"
"4.3000","3.5530","0.2144"
"4.4000","3.6349","0.2183"
"4.5000","3.7205","0.2229"
"4.6000","3.8036","0.2273"
"4.7000","3.8877","0.2315"
"4.8000","3.9692","0.2362"
"4.9000","4.0515","0.2400"
"5.0000","4.1372","0.2446"
"5.1000","4.2200","0.2487"
"5.2000","4.3043","0.2530"
"5.3000","4.3863","0.2575"
"5.4000","4.4693","0.2614"
"5.5000","4.5527","0.2659"
"5.6000","4.6354","0.2698"
"5.7000","4.7199","0.2740"
"5.8000","4.8041","0.2786"
"5.9000","4.8854","0.2824"
"6.0000","4.9701","0.2869"
"6.1000","5.0522","0.2909"
"6.2000","5.1370","0.2950"
"6.3000","5.2198","0.2993"
"6.4000","5.3027","0.3031"
"6.5000","5.3875","0.3077"
"6.6000","5.4692","0.3116"
"6.7000","5.5532","0.3156"
"6.8000","5.6359","0.3201"
"6.9000","5.7195","0.3237"
"7.0000","5.8040","0.3282"
"7.1000","5.8864","0.3321"
"7.2000","5.9697","0.3362"
"7.3000","6.0531","0.3406"
"7.4000","6.1349","0.3441"
"7.5000","6.2205","0.3485"
"7.6000","6.3033","0.3524"
"7.7000","6.3877","0.3565"
"7.8000","6.4691","0.3607"
"7.9000","6.5517","0.3643"
"8.0000","6.6374","0.3685"
"8.1000","6.7198","0.3724"
"8.2000","6.8042","0.3763"
"8.3000","6.8861","0.3806"
"8.4000","6.9692","0.3843"
"8.5000","7.0529","0.3885"
"8.6000","7.1358","0.3923"
"8.7000","7.2200","0.3962"
"8.8000","7.3040","0.4005"
"8.9000","7.3853","0.4041"
"9.0000","7.4704","0.4083"
"9.1000","7.5523","0.4121"
"9.2000","7.6370","0.4159"
"9.3000","7.7199","0.4202"
"9.4000","7.8030","0.4237"
"9.5000","7.8879","0.4280"
"9.6000","7.9692","0.4318"
"9.7000","8.0530","0.4356"
"9.8000","8.1356","0.4397"
"9.9000","8.2194","0.4433"
"10.0000","8.3037","0.4476"
"10.1000","8.3862","0.4513"
"10.2000","8.4696","0.4552"
"10.3000","8.5530","0.4595"
"10.4000","8.6349","0.4628"
"10.5000","8.7204","0.4671"
"10.6000","8.8032","0.4709"
"10.7000","8.8876","0.4748"
"10.8000","8.9690","0.4790"
"10.9000","9.0515","0.4824"
"11.0000","9.1374","0.4867"
"11.1000","9.2199","0.4903"
"11.2000","9.3040","0.4942"
"11.3000","9.3864","0.4985"
"11.4000","9.4692","0.5020"
"11.5000","9.5527","0.5062"
"11.6000","9.6355","0.5099"
"11.7000","9.7201","0.5138"
"11.8000","9.8040","0.5180"
"11.9000","9.8853","0.5216"
"12.0000","9.9700","0.5258"
"12.1000","10.0521","0.5294"
"12.2000","10.1368","0.5333"
"12.3000","10.2198","0.5375"
"12.4000","10.3030","0.5410"
"12.5000","10.3880","0.5454"
"12.6000","10.4692","0.5492"
"12.7000","10.5530","0.5530"
"12.8000","10.6357","0.5573"
"12.9000","10.7195","0.5609"
"13.0000","10.8038","0.5652"
"13.1000","10.8863","0.5691"
"13.2000","10.9694","0.5730"
"13.3000","11.0532","0.5774"
"13.4000","11.1348","0.5809"
"13.5000","11.2205","0.5852"
"13.6000","11.3033","0.5891"
"13.7000","11.3876","0.5932"
"13.8000","11.4692","0.5975"
"13.9000","11.5519","0.6011"
"14.0000","11.6373","0.6054"
"14.1000","11.7200","0.6093"
"14.2000","11.8040","0.6133"
"14.3000","11.8865","0.6178"
"14.4000","11.9690","0.6215"
"14.5000","12.0529","0.6259"
"14.6000","12.1355","0.6297"
"14.7000","12.2201","0.6339"
"14.8000","12.3040","0.6383"
"14.9000","12.3857","0.6421"
"15.0000","12.4699","0.6465"
"15.1000","12.5523","0.6505"
"15.2000","12.6371","0.6546"
"15.3000","12.7197","0.6591"
"15.4000","12.8026","0.6629"
"15.5000","12.8874","0.6675"
"15.6000","12.9693","0.6716"
"15.7000","13.0530","0.6756"
"15.8000","13.1358","0.6802"
"15.9000","13.2195","0.6840"
"16.0000","13.3036","0.6886"
"16.1000","13.3859","0.6927"
"16.2000","13.4695","0.6971"
"16.3000","13.5529","0.7017"
"16.4000","13.6350","0.7054"
"16.5000","13.7206","0.7101"
"16.6000","13.8033","0.7142"
"16.7000","13.8879","0.7186"
"16.8000","13.9692","0.7231"
"16.9000","14.0518","0.7270"
"17.0000","14.1372","0.7316"
"17.1000","14.2198","0.7359"
"17.2000","14.3042","0.7402"
"17.3000","14.3865","0.7449"
"17.4000","14.4692","0.7488"
"17.5000","14.5528","0.7534"
"17.6000","14.6353","0.7575"
"17.7000","14.7200","0.7617"
"17.8000","14.8041","0.7665"
"17.9000","14.8856","0.7703"
"18.0000","14.9701","0.7748"
"18.1000","15.0520","0.7789"
"18.2000","15.1370","0.7831"
"18.3000","15.2194","0.7875"
"18.4000","15.3029","0.7913"
"18.5000","15.3880","0.7959"
"18.6000","15.4692","0.7998"
"18.7000","15.5529","0.8039"
"18.8000","15.6357","0.8083"
"18.9000","15.7196","0.8121"
"19.0000","15.8040","0.8164"
"19.1000","15.8861","0.8204"
"19.2000","15.9695","0.8245"
"19.3000","16.0529","0.8289"
"19.4000","16.1349","0.8324"
"19.5000","16.2206","0.8368"
"19.6000","16.3031","0.8407"
"19.7000","16.3874","0.8447"
"19.8000","16.4694","0.8489"
"19.9000","16.5518","0.8524"
"20.0000","16.6374","0.8567"
"20.1000","16.7196","0.8604"
"20.2000","16.8039","0.8644"
"20.3000","16.8864","0.8686"
"20.4000","16.9690","0.8722"
"20.5000","17.0531","0.8764"
"20.6000","17.1356","0.8802"
"20.7000","17.2200","0.8840"
"20.8000","17.3040","0.8882"
"20.9000","17.3856","0.8917"
"21.0000","17.4702","0.8958"
"21.1000","17.5521","0.8994"
"21.2000","17.6371","0.9032"
"21.3000","17.7197","0.9072"
"21.4000","17.8029","0.9107"
"21.5000","17.8876","0.9149"
"21.6000","17.9692","0.9185"
"21.7000","18.0529","0.9221"
"21.8000","18.1359","0.9261"
"21.9000","18.2197","0.9295"
"22.0000","18.3040","0.9335"
"22.1000","18.3861","0.9370"
"22.2000","18.4695","0.9406"
"22.3000","18.5529","0.9446"
"22.4000","18.6350","0.9477"
"22.5000","18.7205","0.9517"
"22.6000","18.8033","0.9552"
"22.7000","18.8876","0.9588"
"22.8000","18.9691","0.9626"
"22.9000","19.0519","0.9654"
"23.0000","19.1374","0.9695"
"23.1000","19.2198","0.9727"
"23.2000","19.3042","0.9764"
"23.3000","19.3862","0.9802"
"23.4000","19.4693","0.9835"
"23.5000","19.5528","0.9871"
"23.6000","19.6355","0.9904"
"23.7000","19.7199","0.9938"
"23.8000","19.8042","0.9976"
"23.9000","19.8856","1.0005"
"24.0000","19.9701","1.0042"
"24.1000","20.0524","1.0073"
"24.2000","20.1368","1.0105"
"24.3000","20.2197","1.0141"
"24.4000","20.3030","1.0171"
"24.5000","20.3879","1.0206"
"24.6000","20.4689","1.0238"
"24.7000","20.5530","1.0269"
"24.8000","20.6356","1.0304"
"24.9000","20.7196","1.0333"
"25.0000","20.8039","1.0369"
"25.1000","20.8861","1.0399"
"25.2000","20.9696","1.0431"
"25.3000","21.0529","1.0466"
"25.4000","21.1348","1.0492"
"25.5000","21.2206","1.0527"
"25.6000","21.3032","1.0557"
"25.7000","21.3876","1.0588"
"25.8000","21.4691","1.0622"
"25.9000","21.5519","1.0649"
"26.0000","21.6371","1.0682"
"26.1000","21.7197","1.0711"
"26.2000","21.8041","1.0741"
"26.3000","21.8865","1.0776"
"26.4000","21.9693","1.0802"
"26.5000","22.0530","1.0834"
"26.6000","22.1357","1.0863"
"26.7000","22.2198","1.0891"
"26.8000","22.3042","1.0926"
"26.9000","22.3855","1.0951"
"27.0000","22.4700","1.0983"
"27.1000","22.5523","1.1011"
"27.2000","22.6372","1.1040"
"27.3000","22.7199","1.1072"
"27.4000","22.8027","1.1097"
"27.5000","22.8878","1.1130"
"27.6000","22.9694","1.1157"
"27.7000","23.0530","1.1185"
"27.8000","23.1358","1.1216"
"27.9000","23.2196","1.1241"
"28.0000","23.3038","1.1273"
"28.1000","23.3859","1.1299"
"28.2000","23.4695","1.1327"
"28.3000","23.5530","1.1358"
"28.4000","23.6349","1.1382"
"28.5000","23.7205","1.1413"
"28.6000","23.8032","1.1439"
"28.7000","23.8875","1.1470"
"28.8000","23.9692","1.1497"
"28.9000","24.0517","1.1524"
"29.0000","24.1366","1.1551"
"29.1000","24.2196","1.1578"
"29.2000","24.3042","1.1603"
"29.3000","24.3866","1.1635"
"29.4000","24.4692","1.1658"
"29.5000","24.5529","1.1687"
"29.6000","24.6355","1.1712"
"29.7000","24.7198","1.1739"
"29.8000","24.8043","1.1770"
"29.9000","24.8856","1.1792"
"30.0000","24.9697","1.1822"
"30.1000","25.0521","1.1847"
"30.2000","25.1370","1.1874"
"30.3000","25.2196","1.1903"
"30.4000","25.3032","1.1926"
"30.5000","25.3877","1.1955"
"30.6000","25.4692","1.1981"
"30.7000","25.5529","1.2005"
"30.8000","25.6357","1.2035"
"30.9000","25.7197","1.2058"
"31.0000","25.8039","1.2086"
"31.1000","25.8860","1.2111"
"31.2000","25.9695","1.2136"
"31.3000","26.0530","1.2165"
"31.4000","26.1346","1.2186"
"31.5000","26.2206","1.2215"
"31.6000","26.3032","1.2238"
"31.7000","26.3877","1.2264"
"31.8000","26.4690","1.2291"
"31.9000","26.5520","1.2313"
"32.0000","26.6373","1.2341"
"32.1000","26.7195","1.2364"
"32.2000","26.8039","1.2390"
"32.3000","26.8863","1.2417"
"32.4000","26.9693","1.2439"
"32.5000","27.0531","1.2467"
"32.6000","27.1358","1.2489"
"32.7000","27.2200","1.2514"
"32.8000","27.3040","1.2542"
"32.9000","27.3855","1.2561"
"33.0000","27.4701","1.2590"
"33.1000","27.5523","1.2613"
"33.2000","27.6370","1.2637"
"33.3000","27.7199","1.2663"
"33.4000","27.8029","1.2684"
"33.5000","27.8878","1.2713"
"33.6000","27.9693","1.2735"
"33.7000","28.0533","1.2759"
"33.8000","28.1360","1.2784"
"33.9000","28.2197","1.2806"
"34.0000","28.3040","1.2831"
"34.1000","28.3862","1.2853"
"34.2000","28.4695","1.2876"
"34.3000","28.5532","1.2903"
"34.4000","28.6350","1.2922"
"34.5000","28.7205","1.2949"
"34.6000","28.8033","1.2970"
"34.7000","28.8876","1.2994"
"34.8000","28.9687","1.3019"
"34.9000","29.0516","1.3041"
"35.0000","29.1371","1.3064"
"35.1000","29.2199","1.3087"
"35.2000","29.3039","1.3108"
"35.3000","29.3864","1.3135"
"35.4000","29.4690","1.3153"
"35.5000","29.5528","1.3179"
"35.6000","29.6356","1.3199"
"35.7000","29.7199","1.3223"
"35.8000","29.8044","1.3249"
"35.9000","29.8856","1.3267"
"36.0000","29.9702","1.3294"
"36.1000","30.0520","1.3315"
"36.2000","30.1372","1.3338"
"36.3000","30.2198","1.3363"
"36.4000","30.3030","1.3383"
"36.5000","30.3876","1.3409"
"36.6000","30.4691","1.3429"
"36.7000","30.5528","1.3451"
"36.8000","30.6359","1.3475"
"36.9000","30.7196","1.3495"
"37.0000","30.8039","1.3519"
"37.1000","30.8861","1.3539"
"37.2000","30.9698","1.3561"
"37.3000","31.0530","1.3586"
"37.4000","31.1350","1.3603"
"37.5000","31.2204","1.3627"
"37.6000","31.3033","1.3647"
"37.7000","31.3875","1.3668"
"37.8000","31.4691","1.3691"
"37.9000","31.5520","1.3708"
"38.0000","31.6372","1.3733"
"38.1000","31.7198","1.3753"
"38.2000","31.8040","1.3773"
"38.3000","31.8862","1.3797"
"38.4000","31.9694","1.3815"
"38.5000","32.0529","1.3838"
"38.6000","32.1355","1.3857"
"38.7000","32.2202","1.3878"
"38.8000","32.3039","1.3901"
"38.9000","32.3855","1.3918"
"39.0000","32.4700","1.3941"
"39.1000","32.5522","1.3961"
"39.2000","32.6370","1.3980"
"39.3000","32.7197","1.4002"
"39.4000","32.8028","1.4020"
"39.5000","32.8877","1.4043"
"39.6000","32.9692","1.4061"
"39.7000","33.0531","1.4080"
"39.8000","33.1359","1.4103"
"39.9000","33.2195","1.4120"
"40.0000","33.3039","1.4143"
"40.1000","33.3861","1.4162"
"40.2000","33.4696","1.4182"
"40.3000","33.5531","1.4205"
"40.4000","33.6349","1.4220"
"40.5000","33.7206","1.4243"
"40.6000","33.8031","1.4261"
"40.7000","33.8875","1.4280"
"40.8000","33.9690","1.4301"
"40.9000","34.0517","1.4317"
"41.0000","34.1371","1.4339"
"41.1000","34.2195","1.4356"
"41.2000","34.3040","1.4377"
"41.3000","34.3863","1.4398"
"41.4000","34.4694","1.4416"
"41.5000","34.5528","1.4435"
"41.6000","34.6357","1.4452"
"41.7000","34.7201","1.4470"
"41.8000","34.8040","1.4492"
"41.9000","34.8848","1.4504"
"42.0000","34.9700","1.4525"
"42.1000","35.0523","1.4542"
"42.2000","35.1371","1.4558"
"42.3000","35.2199","1.4577"
"42.4000","35.3031","1.4592"
"42.5000","35.3879","1.4613"
"42.6000","35.4691","1.4628"
"42.7000","35.5532","1.4645"
"42.8000","35.6357","1.4665"
"42.9000","35.7194","1.4679"
"43.0000","35.8038","1.4699"
"43.1000","35.8862","1.4716"
"43.2000","35.9696","1.4733"
"43.3000","36.0528","1.4753"
"43.4000","36.1350","1.4767"
"43.5000","36.2206","1.4786"
"43.6000","36.3034","1.4803"
"43.7000","36.3877","1.4820"
"43.8000","36.4689","1.4838"
"43.9000","36.5517","1.4851"
"44.0000","36.6374","1.4872"
"44.1000","36.7199","1.4887"
"44.2000","36.8039","1.4904"
"44.3000","36.8865","1.4924"
"44.4000","36.9692","1.4938"
"44.5000","37.0531","1.4958"
"44.6000","37.1354","1.4973"
"44.7000","37.2201","1.4990"
"44.8000","37.3037","1.5011"
"44.9000","37.3853","1.5024"
"45.0000","37.4702","1.5045"
"45.1000","37.5524","1.5060"
"45.2000","37.6371","1.5077"
"45.3000","37.7198","1.5097"
"45.4000","37.8026","1.5110"
"45.5000","37.8875","1.5130"
"45.6000","37.9693","1.5145"
"45.7000","38.0532","1.5161"
"45.8000","38.1358","1.5180"
"45.9000","38.2196","1.5194"
"46.0000","38.3039","1.5213"
"46.1000","38.3861","1.5229"
"46.2000","38.4694","1.5245"
"46.3000","38.5530","1.5265"
"46.4000","38.6346","1.5277"
"46.5000","38.7204","1.5298"
"46.6000","38.8035","1.5314"
"46.7000","38.8880","1.5331"
"46.8000","38.9690","1.5351"
"46.9000","39.0519","1.5365"
"47.0000","39.1373","1.5386"
"47.1000","39.2198","1.5402"
"47.2000","39.3040","1.5419"
"47.3000","39.3862","1.5440"
"47.4000","39.4693","1.5457"
"47.5000","39.5526","1.5476"
"47.6000","39.6355","1.5493"
"47.7000","39.7200","1.5510"
"47.8000","39.8042","1.5532"
"47.9000","39.8854","1.5545"
"48.0000","39.9701","1.5566"
"48.1000","40.0520","1.5582"
"48.2000","40.1367","1.5599"
"48.3000","40.2199","1.5619"
"48.4000","40.3028","1.5633"
"48.5000","40.3878","1.5654"
"48.6000","40.4692","1.5669"
"48.7000","40.5531","1.5684"
"48.8000","40.6360","1.5703"
"48.9000","40.7197","1.5716"
"49.0000","40.8039","1.5733"
"49.1000","40.8862","1.5747"
"49.2000","40.9695","1.5763"
"49.3000","41.0532","1.5782"
"49.4000","41.1349","1.5792"
"49.5000","41.2205","1.5810"
"49.6000","41.3033","1.5824"
"49.7000","41.3878","1.5840"
"49.8000","41.4693","1.5857"
"49.9000","41.5521","1.5869"
"50.0000","41.6373","1.5886"
"50.1000","41.7198","1.5900"
"50.2000","41.8040","1.5915"
"50.3000","41.8863","1.5934"
"50.4000","41.9692","1.5946"
"50.5000","42.0529","1.5963"
"50.6000","42.1356","1.5977"
"50.7000","42.2200","1.5991"
"50.8000","42.3040","1.6010"
"50.9000","42.3852","1.6021"
"51.0000","42.4701","1.6040"
"51.1000","42.5523","1.6053"
"51.2000","42.6370","1.6068"
"51.3000","42.7196","1.6085"
"51.4000","42.8028","1.6096"
"51.5000","42.8876","1.6113"
"51.6000","42.9694","1.6125"
"51.7000","43.0531","1.6137"
"51.8000","43.1360","1.6153"
"51.9000","43.2197","1.6163"
"52.0000","43.3038","1.6179"
"52.1000","43.3862","1.6192"
"52.2000","43.4694","1.6205"
"52.3000","43.5526","1.6221"
"52.4000","43.6351","1.6232"
"52.5000","43.7205","1.6249"
"52.6000","43.8034","1.6261"
"52.7000","43.8875","1.6275"
"52.8000","43.9690","1.6290"
"52.9000","44.0515","1.6299"
"53.0000","44.1373","1.6314"
"53.1000","44.2198","1.6324"
"53.2000","44.3042","1.6335"
"53.3000","44.3863","1.6350"
"53.4000","44.4693","1.6358"
"53.5000","44.5526","1.6373"
"53.6000","44.6353","1.6383"
"53.7000","44.7201","1.6396"
"53.8000","44.8042","1.6412"
"53.9000","44.8854","1.6421"
"54.0000","44.9701","1.6438"
"54.1000","45.0522","1.6451"
"54.2000","45.1369","1.6467"
"54.3000","45.2194","1.6485"
"54.4000","45.3029","1.6498"
"54.5000","45.3877","1.6519"
"54.6000","45.4694","1.6535"
"54.7000","45.5531","1.6549"
"54.8000","45.6359","1.6569"
"54.9000","45.7195","1.6582"
"55.0000","45.8039","1.6601"
"55.1000","45.8861","1.6616"
"55.2000","45.9692","1.6633"
"55.3000","46.0529","1.6655"
"55.4000","46.1352","1.6669"
"55.5000","46.2207","1.6689"
"55.6000","46.3034","1.6705"
"55.7000","46.3876","1.6723"
"55.8000","46.4692","1.6743"
"55.9000","46.5517","1.6758"
"56.0000","46.6373","1.6780"
"56.1000","46.7195","1.6797"
"56.2000","46.8039","1.6814"
"56.3000","46.8864","1.6836"
"56.4000","46.9693","1.6851"
"56.5000","47.0529","1.6872"
"56.6000","47.1355","1.6888"
"56.7000","47.2198","1.6906"
"56.8000","47.3043","1.6928"
"56.9000","47.3854","1.6941"
"57.0000","47.4702","1.6961"
"57.1000","47.5522","1.6978"
"57.2000","47.6367","1.6996"
"57.3000","47.7196","1.7016"
"57.4000","47.8028","1.7031"
"57.5000","47.8877","1.7053"
"57.6000","47.9692","1.7069"
"57.7000","48.0532","1.7086"
"57.8000","48.1359","1.7107"
"57.9000","48.2195","1.7122"
"58.0000","48.3039","1.7142"
"58.1000","48.3860","1.7159"
"58.2000","48.4692","1.7177"
"58.3000","48.5528","1.7198"
"58.4000","48.6346","1.7210"
"58.5000","48.7205","1.7232"
"58.6000","48.8031","1.7248"
"58.7000","48.8876","1.7267"
"58.8000","48.9694","1.7286"
"58.9000","49.0516","1.7301"
"59.0000","49.1371","1.7322"
"59.1000","49.2197","1.7340"
"59.2000","49.3041","1.7359"
"59.3000","49.3865","1.7380"
"59.4000","49.4691","1.7396"
"59.5000","49.5529","1.7416"
"59.6000","49.6356","1.7434"
"59.7000","49.7200","1.7452"
"59.8000","49.8043","1.7473"
"59.9000","49.8853","1.7488"
"60.0000","49.9700","1.7509"
"60.1000","50.0522","1.7526"
"60.2000","50.1367","1.7544"
"60.3000","50.2197","1.7565"
"60.4000","50.3030","1.7580"
"60.5000","50.3876","1.7602"
"60.6000","50.4692","1.7619"
"60.7000","50.5530","1.7637"
"60.8000","50.6361","1.7659"
"60.9000","50.7196","1.7673"
"61.0000","50.8037","1.7695"
"61.1000","50.8863","1.7712"
"61.2000","50.9693","1.7730"
"61.3000","51.0530","1.7751"
"61.4000","51.1348","1.7765"
"61.5000","51.2206","1.7786"
"61.6000","51.3034","1.7802"
"61.7000","51.3878","1.7820"
"61.8000","51.4691","1.7840"
"61.9000","51.5519","1.7854"
"62.0000","51.6373","1.7875"
"62.1000","51.7198","1.7892"
"62.2000","51.8040","1.7909"
"62.3000","51.8861","1.7931"
"62.4000","51.9691","1.7947"
"62.5000","52.0530","1.7968"
"62.6000","52.1354","1.7984"
"62.7000","52.2201","1.8002"
"62.8000","52.3041","1.8024"
"62.9000","52.3854","1.8037"
"63.0000","52.4700","1.8058"
"63.1000","52.5522","1.8075"
"63.2000","52.6369","1.8092"
"63.3000","52.7198","1.8112"
"63.4000","52.8026","1.8127"
"63.5000","52.8877","1.8148"
"63.6000","52.9691","1.8165"
"63.7000","53.0533","1.8181"
"63.8000","53.1356","1.8202"
"63.9000","53.2194","1.8217"
"64.0000","53.3039","1.8237"
"64.1000","53.3858","1.8255"
"64.2000","53.4693","1.8272"
"64.3000","53.5528","1.8294"
"64.4000","53.6345","1.8308"
"64.5000","53.7204","1.8329"
"64.6000","53.8031","1.8345"
"64.7000","53.8875","1.8363"
"64.8000","53.9691","1.8383"
"64.9000","54.0515","1.8397"
"65.0000","54.1373","1.8419"
"65.1000","54.2195","1.8434"
"65.2000","54.3041","1.8451"
"65.3000","54.3863","1.8473"
"65.4000","54.4690","1.8488"
"65.5000","54.5530","1.8508"
"65.6000","54.6355","1.8524"
"65.7000","54.7199","1.8541"
"65.8000","54.8043","1.8563"
"65.9000","54.8853","1.8576"
"66.0000","54.9700","1.8597"
"66.1000","55.0522","1.8614"
"66.2000","55.1369","1.8631"
"66.3000","55.2198","1.8652"
"66.4000","55.3029","1.8666"
"66.5000","55.3878","1.8687"
"66.6000","55.4691","1.8703"
"66.7000","55.5531","1.8721"
"66.8000","55.6357","1.8741"
"66.9000","55.7192","1.8756"
"67.0000","55.8038","1.8777"
"67.1000","55.8860","1.8793"
"67.2000","55.9694","1.8810"
"67.3000","56.0529","1.8833"
"67.4000","56.1348","1.8846"
"67.5000","56.2205","1.8866"
"67.6000","56.3032","1.8884"
"67.7000","56.3875","1.8903"
"67.8000","56.4696","1.8923"
"67.9000","56.5516","1.8938"
"68.0000","56.6373","1.8960"
"68.1000","56.7199","1.8976"
"68.2000","56.8040","1.8994"
"68.3000","56.8863","1.9014"
"68.4000","56.9690","1.9030"
"68.5000","57.0530","1.9051"
"68.6000","57.1359","1.9067"
"68.7000","57.2199","1.9083"
"68.8000","57.3041","1.9106"
"68.9000","57.3852","1.9119"
"69.0000","57.4700","1.9142"
"69.1000","57.5522","1.9158"
"69.2000","57.6367","1.9176"
"69.3000","57.7199","1.9198"
"69.4000","57.8030","1.9212"
"69.5000","57.8877","1.9234"
"69.6000","57.9695","1.9251"
"69.7000","58.0530","1.9267"
"69.8000","58.1358","1.9288"
"69.9000","58.2196","1.9303"
"70.0000","58.3038","1.9324"
"70.1000","58.3859","1.9341"
"70.2000","58.4696","1.9358"
"70.3000","58.5531","1.9379"
"70.4000","58.6346","1.9392"
"70.5000","58.7206","1.9415"
"70.6000","58.8031","1.9430"
"70.7000","58.8873","1.9448"
"70.8000","58.9690","1.9468"
"70.9000","59.0511","1.9482"
"71.0000","59.1372","1.9505"
"71.1000","59.2199","1.9521"
"71.2000","59.3043","1.9539"
"71.3000","59.3862","1.9553"
"71.4000","59.4692","1.9568"
"71.5000","59.5530","1.9588"
"71.6000","59.6356","1.9605"
"71.7000","59.7200","1.9621"
"71.8000","59.8042","1.9643"
"71.9000","59.8853","1.9656"
"72.0000","59.9700","1.9678"
"72.1000","60.0522","1.9695"
"72.2000","60.1371","1.9713"
"72.3000","60.2199","1.9733"
"72.4000","60.3029","1.9748"
"72.5000","60.3877","1.9769"
"72.6000","60.4692","1.9787"
"72.7000","60.5531","1.9804"
"72.8000","60.6357","1.9825"
"72.9000","60.7196","1.9840"
"73.0000","60.8040","1.9860"
"73.1000","60.8862","1.9877"
"73.2000","60.9696","1.9895"
"73.3000","61.0530","1.9916"
"73.4000","61.1350","1.9930"
"73.5000","61.2206","1.9950"
"73.6000","61.3035","1.9967"
"73.7000","61.3877","1.9985"
"73.8000","61.4691","2.0005"
"73.9000","61.5518","2.0019"
"74.0000","61.6372","2.0041"
"74.1000","61.7197","2.0058"
"74.2000","61.8040","2.0075"
"74.3000","61.8861","2.0096"
"74.4000","61.9692","2.0112"
"74.5000","62.0531","2.0132"
"74.6000","62.1356","2.0149"
"74.7000","62.2197","2.0167"
"74.8000","62.3042","2.0189"
"74.9000","62.3854","2.0203"
"75.0000","62.4702","2.0224"
"75.1000","62.5522","2.0240"
"75.2000","62.6372","2.0259"
"75.3000","62.7196","2.0278"
"75.4000","62.8028","2.0294"
"75.5000","62.8875","2.0316"
"75.6000","62.9691","2.0333"
"75.7000","63.0528","2.0350"
"75.8000","63.1359","2.0372"
"75.9000","63.2197","2.0386"
"76.0000","63.3042","2.0408"
"76.1000","63.3862","2.0425"
"76.2000","63.4695","2.0443"
"76.3000","63.5530","2.0464"
"76.4000","63.6349","2.0478"
"76.5000","63.7205","2.0498"
"76.6000","63.8032","2.0515"
"76.7000","63.8874","2.0533"
"76.8000","63.9690","2.0553"
"76.9000","64.0517","2.0568"
"77.0000","64.1373","2.0589"
"77.1000","64.2194","2.0605"
"77.2000","64.3044","2.0624"
"77.3000","64.3863","2.0644"
"77.4000","64.4691","2.0659"
"77.5000","64.5531","2.0680"
"77.6000","64.6356","2.0696"
"77.7000","64.7200","2.0713"
"77.8000","64.8041","2.0735"
"77.9000","64.8856","2.0749"
"78.0000","64.9704","2.0771"
"78.1000","65.0523","2.0786"
"78.2000","65.1369","2.0804"
"78.3000","65.2198","2.0824"
"78.4000","65.3029","2.0839"
"78.5000","65.3879","2.0860"
"78.6000","65.4694","2.0878"
"78.7000","65.5530","2.0895"
"78.8000","65.6360","2.0916"
"78.9000","65.7197","2.0932"
"79.0000","65.8042","2.0952"
"79.1000","65.8862","2.0969"
"79.2000","65.9697","2.0987"
"79.3000","66.0531","2.1008"
"79.4000","66.1347","2.1021"
"79.5000","66.2206","2.1042"
"79.6000","66.3035","2.1059"
"79.7000","66.3876","2.1077"
"79.8000","66.4692","2.1096"
"79.9000","66.5517","2.1111"
"80.0000","66.6373","2.1132"
"80.1000","66.7197","2.1150"
"80.2000","66.8041","2.1167"
"80.3000","66.8862","2.1188"
"80.4000","66.9691","2.1205"
"80.5000","67.0530","2.1225"
"80.6000","67.1358","2.1242"
"80.7000","67.2194","2.1258"
"80.8000","67.3045","2.1281"
"80.9000","67.3855","2.1296"
"81.0000","67.4703","2.1318"
"81.1000","67.5522","2.1334"
"81.2000","67.6370","2.1352"
"81.3000","67.7198","2.1372"
"81.4000","67.8027","2.1388"
"81.5000","67.8876","2.1410"
"81.6000","67.9692","2.1427"
"81.7000","68.0530","2.1444"
"81.8000","68.1357","2.1465"
"81.9000","68.2194","2.1481"
"82.0000","68.3038","2.1503"
"82.1000","68.3859","2.1520"
"82.2000","68.4697","2.1538"
"82.3000","68.5531","2.1560"
"82.4000","68.6349","2.1574"
"82.5000","68.7206","2.1595"
"82.6000","68.8035","2.1613"
"82.7000","68.8875","2.1632"
"82.8000","68.9690","2.1651"
"82.9000","69.0515","2.1667"
"83.0000","69.1371","2.1689"
"83.1000","69.2198","2.1705"
"83.2000","69.3039","2.1723"
"83.3000","69.3866","2.1745"
"83.4000","69.4691","2.1760"
"83.5000","69.5528","2.1781"
"83.6000","69.6355","2.1798"
"83.7000","69.7199","2.1815"
"83.8000","69.8039","2.1838"
"83.9000","69.8854","2.1852"
"84.0000","69.9701","2.1873"
"84.1000","70.0522","2.1890"
"84.2000","70.1369","2.1908"
"84.3000","70.2198","2.1929"
"84.4000","70.3028","2.1943"
"84.5000","70.3877","2.1966"
"84.6000","70.4694","2.1983"
"84.7000","70.5532","2.2000"
"84.8000","70.6358","2.2021"
"84.9000","70.7196","2.2037"
"85.0000","70.8039","2.2058"
"85.1000","70.8859","2.2075"
"85.2000","70.9694","2.2094"
"85.3000","71.0530","2.2116"
"85.4000","71.1347","2.2130"
"85.5000","71.2206","2.2151"
"85.6000","71.3036","2.2169"
"85.7000","71.3877","2.2187"
"85.8000","71.4693","2.2207"
"85.9000","71.5518","2.2222"
"86.0000","71.6373","2.2243"
"86.1000","71.7195","2.2261"
"86.2000","71.8040","2.2278"
"86.3000","71.8861","2.2300"
"86.4000","71.9692","2.2316"
"86.5000","72.0531","2.2336"
"86.6000","72.1357","2.2353"
"86.7000","72.2199","2.2370"
"86.8000","72.3040","2.2393"
"86.9000","72.3853","2.2406"
"87.0000","72.4701","2.2428"
"87.1000","72.5520","2.2445"
"87.2000","72.6368","2.2464"
"87.3000","72.7197","2.2484"
"87.4000","72.8027","2.2499"
"87.5000","72.8876","2.2521"
"87.6000","72.9690","2.2538"
"87.7000","73.0529","2.2555"
"87.8000","73.1358","2.2577"
"87.9000","73.2196","2.2593"
"88.0000","73.3039","2.2614"
"88.1000","73.3860","2.2630"
"88.2000","73.4693","2.2647"
"88.3000","73.5532","2.2670"
"88.4000","73.6348","2.2683"
"88.5000","73.7205","2.2704"
"88.6000","73.8034","2.2721"
"88.7000","73.8875","2.2739"
"88.8000","73.9692","2.2760"
"88.9000","74.0520","2.2775"
"89.0000","74.1372","2.2797"
"89.1000","74.2199","2.2812"
"89.2000","74.3040","2.2830"
"89.3000","74.3865","2.2852"
"89.4000","74.4690","2.2868"
"89.5000","74.5528","2.2888"
"89.6000","74.6357","2.2905"
"89.7000","74.7201","2.2922"
"89.8000","74.8042","2.2944"
"89.9000","74.8853","2.2958"
"90.0000","74.9702","2.2980"
"90.1000","75.0521","2.2996"
"90.2000","75.1369","2.3014"
"90.3000","75.2199","2.3035"
"90.4000","75.3030","2.3050"
"90.5000","75.3878","2.3071"
"90.6000","75.4694","2.3089"
"90.7000","75.5530","2.3105"
"90.8000","75.6360","2.3127"
"90.9000","75.7195","2.3142"
"91.0000","75.8040","2.3163"
"91.1000","75.8858","2.3179"
"91.2000","75.9697","2.3198"
"91.3000","76.0530","2.3219"
"91.4000","76.1349","2.3233"
"91.5000","76.2204","2.3253"
"91.6000","76.3035","2.3271"
"91.7000","76.3878","2.3289"
"91.8000","76.4694","2.3309"
"91.9000","76.5517","2.3323"
"92.0000","76.6373","2.3345"
"92.1000","76.7196","2.3361"
"92.2000","76.8040","2.3380"
"92.3000","76.8863","2.3402"
"92.4000","76.9692","2.3417"
"92.5000","77.0528","2.3438"
"92.6000","77.1357","2.3455"
"92.7000","77.2199","2.3473"
"92.8000","77.3040","2.3495"
"92.9000","77.3854","2.3509"
"93.0000","77.4702","2.3531"
"93.1000","77.5521","2.3547"
"93.2000","77.6370","2.3566"
"93.3000","77.7197","2.3585"
"93.4000","77.8026","2.3601"
"93.5000","77.8875","2.3623"
"93.6000","77.9693","2.3640"
"93.7000","78.0531","2.3656"
"93.8000","78.1357","2.3678"
"93.9000","78.2196","2.3693"
"94.0000","78.3037","2.3714"
"94.1000","78.3861","2.3731"
"94.2000","78.4694","2.3748"
"94.3000","78.5529","2.3770"
"94.4000","78.6346","2.3784"
"94.5000","78.7208","2.3805"
"94.6000","78.8034","2.3822"
"94.7000","78.8877","2.3841"
"94.8000","78.9689","2.3860"
"94.9000","79.0515","2.3876"
"95.0000","79.1371","2.3898"
"95.1000","79.2195","2.3915"
"95.2000","79.3041","2.3933"
"95.3000","79.3864","2.3955"
"95.4000","79.4692","2.3971"
"95.5000","79.5528","2.3990"
"95.6000","79.6357","2.4007"
"95.7000","79.7200","2.4024"
"95.8000","79.8041","2.4046"
"95.9000","79.8854","2.4060"
"96.0000","79.9699","2.4081"
"96.1000","80.0519","2.4098"
"96.2000","80.1369","2.4116"
"96.3000","80.2198","2.4135"
"96.4000","80.3027","2.4151"
"96.5000","80.3879","2.4172"
"96.6000","80.4693","2.4189"
"96.7000","80.5529","2.4205"
"96.8000","80.6357","2.4226"
"96.9000","80.7194","2.4241"
"97.0000","80.8039","2.4262"
"97.1000","80.8862","2.4278"
"97.2000","80.9696","2.4296"
"97.3000","81.0532","2.4317"
"97.4000","81.1348","2.4331"
"97.5000","81.2205","2.4351"
"97.6000","81.3033","2.4367"
"97.7000","81.3873","2.4385"
"97.8000","81.4694","2.4404"
"97.9000","81.5518","2.4420"
"98.0000","81.6375","2.4441"
"98.1000","81.7198","2.4457"
"98.2000","81.8041","2.4474"
"98.3000","81.8866","2.4495"
"98.4000","81.9687","2.4510"
"98.5000","82.0531","2.4531"
"98.6000","82.1358","2.4547"
"98.7000","82.2198","2.4564"
"98.8000","82.3042","2.4586"
"98.9000","82.3852","2.4599"
"99.0000","82.4701","2.4620"
"99.1000","82.5523","2.4635"
"99.2000","82.6371","2.4653"
"99.3000","82.7198","2.4672"
"99.4000","82.8028","2.4687"
"99.5000","82.8877","2.4709"
"99.6000","82.9694","2.4725"
"99.7000","83.0528","2.4742"
"99.8000","83.1358","2.4763"
"99.9000","83.2194","2.4778"
"100.0000","83.3039","2.4799"
"100.1000","83.3860","2.4815"
"100.2000","83.4695","2.4833"
"100.3000","83.5532","2.4854"
"100.4000","83.6346","2.4867"
"100.5000","83.7204","2.4888"
"100.6000","83.8035","2.4905"
"100.7000","83.8877","2.4922"
"100.8000","83.9693","2.4942"
"100.9000","84.0516","2.4956"
"101.0000","84.1371","2.4977"
"101.1000","84.2197","2.4994"
"101.2000","84.3038","2.5010"
"101.3000","84.3865","2.5032"
"101.4000","84.4691","2.5046"
"101.5000","84.5528","2.5066"
"101.6000","84.6356","2.5082"
"101.7000","84.7202","2.5099"
"101.8000","84.8044","2.5120"
"101.9000","84.8854","2.5133"
"102.0000","84.9702","2.5154"
"102.1000","85.0522","2.5170"
"102.2000","85.1370","2.5186"
"102.3000","85.2201","2.5206"
"102.4000","85.3031","2.5220"
"102.5000","85.3877","2.5241"
"102.6000","85.4688","2.5256"
"102.7000","85.5533","2.5273"
"102.8000","85.6360","2.5294"
"102.9000","85.7195","2.5308"
"103.0000","85.8038","2.5328"
"103.1000","85.8859","2.5343"
"103.2000","85.9695","2.5361"
"103.3000","86.0530","2.5382"
"103.4000","86.1348","2.5394"
"103.5000","86.2207","2.5414"
"103.6000","86.3034","2.5429"
"103.7000","86.3877","2.5446"
"103.8000","86.4693","2.5464"
"103.9000","86.5516","2.5477"
"104.0000","86.6374","2.5498"
"104.1000","86.7197","2.5513"
"104.2000","86.8041","2.5530"
"104.3000","86.8863","2.5550"
"104.4000","86.9693","2.5565"
"104.5000","87.0530","2.5584"
"104.6000","87.1355","2.5600"
"104.7000","87.2202","2.5616"
"104.8000","87.3040","2.5637"
"104.9000","87.3852","2.5649"
"105.0000","87.4699","2.5669"
"105.1000","87.5521","2.5684"
"105.2000","87.6370","2.5701"
"105.3000","87.7199","2.5720"
"105.4000","87.8027","2.5733"
"105.5000","87.8877","2.5754"
"105.6000","87.9693","2.5770"
"105.7000","88.0531","2.5785"
"105.8000","88.1359","2.5805"
"105.9000","88.2194","2.5820"
"106.0000","88.3039","2.5839"
"106.1000","88.3861","2.5854"
"106.2000","88.4694","2.5871"
"106.3000","88.5529","2.5891"
"106.4000","88.6348","2.5903"
"106.5000","88.7204","2.5923"
"106.6000","88.8035","2.5939"
"106.7000","88.8875","2.5955"
"106.8000","88.9691","2.5973"
"106.9000","89.0518","2.5986"
"107.0000","89.1374","2.6006"
"107.1000","89.2197","2.6020"
"107.2000","89.3040","2.6037"
"107.3000","89.3867","2.6057"
"107.4000","89.4692","2.6071"
"107.5000","89.5529","2.6090"
"107.6000","89.6356","2.6105"
"107.7000","89.7200","2.6121"
"107.8000","89.8041","2.6141"
"107.9000","89.8857","2.6153"
"108.0000","89.9703","2.6172"
"108.1000","90.0521","2.6187"
"108.2000","90.1370","2.6203"
"108.3000","90.2198","2.6221"
"108.4000","90.3029","2.6235"
"108.5000","90.3878","2.6254"
"108.6000","90.4684","2.6268"
"108.7000","90.5532","2.6284"
"108.8000","90.6357","2.6303"
"108.9000","90.7199","2.6316"
"109.0000","90.8039","2.6333"
"109.1000","90.8860","2.6346"
"109.2000","90.9693","2.6360"
"109.3000","91.0529","2.6378"
"109.4000","91.1350","2.6387"
"109.5000","91.2207","2.6402"
"109.6000","91.3032","2.6411"
"109.7000","91.3874","2.6421"
"109.8000","91.4692","2.6434"
"109.9000","91.5520","2.6443"
"110.0000","91.6375","2.6458"
"110.1000","91.7195","2.6468"
"110.2000","91.8040","2.6479"
"110.3000","91.8862","2.6494"
"110.4000","91.9694","2.6503"
"110.5000","92.0527","2.6515"
"110.6000","92.1352","2.6524"
"110.7000","92.2200","2.6535"
"110.8000","92.3042","2.6553"
"110.9000","92.3850","2.6562"
"111.0000","92.4702","2.6579"
"111.1000","92.5524","2.6593"
"111.2000","92.6371","2.6610"
"111.3000","92.7199","2.6629"
"111.4000","92.8029","2.6644"
"111.5000","92.8877","2.6665"
"111.6000","92.9689","2.6682"
"111.7000","93.0531","2.6700"
"111.8000","93.1360","2.6722"
"111.9000","93.2195","2.6739"
"112.0000","93.3040","2.6762"
"112.1000","93.3860","2.6779"
"112.2000","93.4695","2.6797"
"112.3000","93.5530","2.6820"
"112.4000","93.6348","2.6836"
"112.5000","93.7207","2.6859"
"112.6000","93.8032","2.6877"
"112.7000","93.8875","2.6898"
"112.8000","93.9691","2.6919"
"112.9000","94.0514","2.6936"
"113.0000","94.1373","2.6960"
"113.1000","94.2200","2.6977"
"113.2000","94.3042","2.6996"
"113.3000","94.3865","2.7017"
"113.4000","94.4688","2.7035"
"113.5000","94.5529","2.7057"
"113.6000","94.6355","2.7076"
"113.7000","94.7200","2.7095"
"113.8000","94.8043","2.7119"
"113.9000","94.8854","2.7134"
"114.0000","94.9702","2.7157"
"114.1000","95.0521","2.7175"
"114.2000","95.1371","2.7195"
"114.3000","95.2199","2.7216"
"114.4000","95.3025","2.7233"
"114.5000","95.3878","2.7256"
"114.6000","95.4690","2.7274"
"114.7000","95.5530","2.7293"
"114.8000","95.6361","2.7316"
"114.9000","95.7198","2.7333"
"115.0000","95.8041","2.7355"
"115.1000","95.8861","2.7372"
"115.2000","95.9697","2.7391"
"115.3000","96.0531","2.7413"
"115.4000","96.1349","2.7428"
"115.5000","96.2207","2.7449"
"115.6000","96.3033","2.7466"
"115.7000","96.3876","2.7486"
"115.8000","96.4691","2.7505"
"115.9000","96.5519","2.7521"
"116.0000","96.6373","2.7543"
"116.1000","96.7198","2.7560"
"116.2000","96.8040","2.7578"
"116.3000","96.8865","2.7601"
"116.4000","96.9692","2.7616"
"116.5000","97.0527","2.7637"
"116.6000","97.1356","2.7655"
"116.7000","97.2201","2.7673"
"116.8000","97.3043","2.7696"
"116.9000","97.3856","2.7710"
"117.0000","97.4702","2.7732"
"117.1000","97.5523","2.7749"
"117.2000","97.6369","2.7767"
"117.3000","97.7198","2.7787"
"117.4000","97.8027","2.7802"
"117.5000","97.8877","2.7825"
"117.6000","97.9692","2.7842"
"117.7000","98.0531","2.7860"
"117.8000","98.1357","2.7881"
"117.9000","98.2197","2.7897"
"118.0000","98.3039","2.7919"
"118.1000","98.3864","2.7936"
"118.2000","98.4695","2.7954"
"118.3000","98.5533","2.7976"
"118.4000","98.6348","2.7989"
"118.5000","98.7206","2.8011"
"118.6000","98.8032","2.8028"
"118.7000","98.8874","2.8046"
"118.8000","98.9692","2.8065"
"118.9000","99.0518","2.8080"
"119.0000","99.1371","2.8101"
"119.1000","99.2195","2.8119"
"119.2000","99.3040","2.8136"
"119.3000","99.3865","2.8158"
"119.4000","99.4692","2.8173"
"119.5000","99.5528","2.8193"
"119.6000","99.6356","2.8210"
"119.7000","99.7199","2.8228"
"119.8000","99.8043","2.8249"
"119.9000","99.8856","2.8263"
"120.0000","99.9700","2.8282"
"120.1000","100.0520","2.8298"
"120.2000","100.1368","2.8315"
"120.3000","100.2198","2.8334"
"120.4000","100.3030","2.8347"
"120.5000","100.3879","2.8365"
"120.6000","100.4691","2.8376"
"120.7000","100.5529","2.8379"
"120.7450","100.5918","1.6329"