File: tensile/test_1.is_qtest_Exports/test_1_3.csv
Time,Displacement,Force
(s),(mm),(kgf)
"0.0000","0.0000","0.0024"
"0.2000","0.1475","0.0094"
"0.4000","0.3146","0.0187"
"0.6000","0.4801","0.0269"
"0.8000","0.6470","0.0349"
"1.0000","0.8127","0.0431"
"1.2000","0.9788","0.0511"
"1.4000","1.1469","0.0589"
"1.6000","1.3137","0.0662"
"1.8000","1.4790","0.0733"
"2.0000","1.6452","0.0803"
"2.2000","1.8133","0.0874"
"2.4000","1.9798","0.0946"
"2.6000","2.1473","0.1013"
"2.8000","2.3137","0.1081"
"3.0000","2.4786","0.1151"
"3.2000","2.6460","0.1219"
"3.4000","2.8142","0.1292"
"3.6000","2.9799","0.1358"
"3.8000","3.1467","0.1422"
"4.0000","3.3127","0.1492"
"4.2000","3.4790","0.1560"
"4.4000","3.6462","0.1629"
"4.6000","3.8134","0.1696"
"4.8000","3.9789","0.1761"
"5.0000","4.1451","0.1829"
"5.2000","4.3133","0.1898"
"5.4000","4.4795","0.1967"
"5.6000","4.6473","0.2031"
"5.8000","4.8138","0.2096"
"6.0000","4.9787","0.2166"
"6.2000","5.1461","0.2233"
"6.4000","5.3145","0.2304"
"6.6000","5.4798","0.2368"
"6.8000","5.6470","0.2431"
"7.0000","5.8129","0.2499"
"7.2000","5.9790","0.2566"
"7.4000","6.1466","0.2635"
"7.6000","6.3135","0.2700"
"7.8000","6.4793","0.2766"
"8.0000","6.6454","0.2832"
"8.2000","6.8134","0.2900"
"8.4000","6.9795","0.2969"
"8.6000","7.1474","0.3033"
"8.8000","7.3139","0.3098"
"9.0000","7.4789","0.3165"
"9.2000","7.6461","0.3232"
"9.4000","7.8142","0.3302"
"9.6000","7.9800","0.3367"
"9.8000","8.1467","0.3431"
"10.0000","8.3128","0.3498"
"10.2000","8.4791","0.3566"
"10.4000","8.6462","0.3634"
"10.6000","8.8136","0.3700"
"10.8000","8.9790","0.3767"
"11.0000","9.1449","0.3833"
"11.2000","9.3132","0.3903"
"11.4000","9.4796","0.3973"
"11.6000","9.6471","0.4037"
"11.8000","9.8138","0.4102"
"12.0000","9.9785","0.4170"
"12.2000","10.1461","0.4240"
"12.4000","10.3141","0.4312"
"12.6000","10.4800","0.4379"
"12.8000","10.6468","0.4445"
"13.0000","10.8128","0.4514"
"13.2000","10.9789","0.4585"
"13.4000","11.1464","0.4657"
"13.6000","11.3135","0.4724"
"13.8000","11.4787","0.4793"
"14.0000","11.6452","0.4863"
"14.2000","11.8133","0.4935"
"14.4000","11.9793","0.5008"
"14.6000","12.1475","0.5076"
"14.8000","12.3136","0.5146"
"15.0000","12.4787","0.5219"
"15.2000","12.6460","0.5292"
"15.4000","12.8142","0.5369"
"15.6000","12.9798","0.5439"
"15.8000","13.1468","0.5510"
"16.0000","13.3126","0.5584"
"16.2000","13.4791","0.5660"
"16.4000","13.6461","0.5736"
"16.6000","13.8135","0.5810"
"16.8000","13.9791","0.5885"
"17.0000","14.1453","0.5961"
"17.2000","14.3133","0.6039"
"17.4000","14.4793","0.6117"
"17.6000","14.6474","0.6192"
"17.8000","14.8134","0.6267"
"18.0000","14.9786","0.6344"
"18.2000","15.1460","0.6422"
"18.4000","15.3141","0.6504"
"18.6000","15.4799","0.6578"
"18.8000","15.6470","0.6651"
"19.0000","15.8128","0.6726"
"19.2000","15.9788","0.6802"
"19.4000","16.1464","0.6878"
"19.6000","16.3134","0.6950"
"19.8000","16.4790","0.7022"
"20.0000","16.6451","0.7094"
"20.2000","16.8135","0.7168"
"20.4000","16.9796","0.7242"
"20.6000","17.1474","0.7310"
"20.8000","17.3138","0.7380"
"21.0000","17.4786","0.7451"
"21.2000","17.6461","0.7523"
"21.4000","17.8142","0.7597"
"21.6000","17.9799","0.7665"
"21.8000","18.1468","0.7732"
"22.0000","18.3126","0.7801"
"22.2000","18.4788","0.7871"
"22.4000","18.6464","0.7942"
"22.6000","18.8136","0.8010"
"22.8000","18.9788","0.8076"
"23.0000","19.1450","0.8144"
"23.2000","19.3132","0.8214"
"23.4000","19.4793","0.8283"
"23.6000","19.6473","0.8348"
"23.8000","19.8137","0.8413"
"24.0000","19.9785","0.8480"
"24.2000","20.1460","0.8548"
"24.4000","20.3139","0.8617"
"24.6000","20.4802","0.8680"
"24.8000","20.6469","0.8741"
"25.0000","20.8129","0.8806"
"25.2000","20.9789","0.8870"
"25.4000","21.1466","0.8935"
"25.6000","21.3134","0.8997"
"25.8000","21.4790","0.9059"
"26.0000","21.6451","0.9121"
"26.2000","21.8134","0.9185"
"26.4000","21.9794","0.9249"
"26.6000","22.1474","0.9307"
"26.8000","22.3136","0.9365"
"27.0000","22.4788","0.9426"
"27.2000","22.6459","0.9486"
"27.4000","22.8141","0.9549"
"27.6000","22.9800","0.9605"
"27.8000","23.1467","0.9661"
"28.0000","23.3127","0.9719"
"28.2000","23.4791","0.9778"
"28.4000","23.6465","0.9836"
"28.6000","23.8135","0.9892"
"28.8000","23.9788","0.9946"
"29.0000","24.1448","1.0001"
"29.2000","24.3131","1.0060"
"29.4000","24.4791","1.0116"
"29.6000","24.6472","1.0169"
"29.8000","24.8136","1.0222"
"30.0000","24.9784","1.0276"
"30.2000","25.1458","1.0331"
"30.4000","25.3144","1.0389"
"30.6000","25.4799","1.0439"
"30.8000","25.6468","1.0490"
"31.0000","25.8124","1.0542"
"31.2000","25.9789","1.0597"
"31.4000","26.1465","1.0650"
"31.6000","26.3135","1.0700"
"31.8000","26.4791","1.0750"
"32.0000","26.6451","1.0802"
"32.2000","26.8135","1.0855"
"32.4000","26.9795","1.0906"
"32.6000","27.1472","1.0955"
"32.8000","27.3137","1.1004"
"33.0000","27.4783","1.1054"
"33.2000","27.6460","1.1105"
"33.4000","27.8142","1.1157"
"33.6000","27.9799","1.1204"
"33.8000","28.1467","1.1251"
"34.0000","28.3125","1.1300"
"34.2000","28.4789","1.1350"
"34.4000","28.6465","1.1400"
"34.6000","28.8135","1.1447"
"34.8000","28.9790","1.1494"
"35.0000","29.1447","1.1542"
"35.2000","29.3132","1.1592"
"35.4000","29.4794","1.1640"
"35.6000","29.6473","1.1685"
"35.8000","29.8137","1.1731"
"36.0000","29.9784","1.1779"
"36.2000","30.1460","1.1827"
"36.4000","30.3143","1.1878"
"36.6000","30.4800","1.1923"
"36.8000","30.6468","1.1966"
"37.0000","30.8125","1.2013"
"37.2000","30.9791","1.2060"
"37.4000","31.1466","1.2108"
"37.6000","31.3136","1.2153"
"37.8000","31.4789","1.2197"
"38.0000","31.6453","1.2242"
"38.2000","31.8133","1.2290"
"38.4000","31.9797","1.2337"
"38.6000","32.1473","1.2378"
"38.8000","32.3136","1.2421"
"39.0000","32.4786","1.2467"
"39.2000","32.6460","1.2513"
"39.4000","32.8142","1.2562"
"39.6000","32.9799","1.2603"
"39.8000","33.1469","1.2645"
"40.0000","33.3124","1.2690"
"40.2000","33.4790","1.2735"
"40.4000","33.6465","1.2781"
"40.6000","33.8134","1.2824"
"40.8000","33.9789","1.2865"
"41.0000","34.1450","1.2909"
"41.2000","34.3133","1.2954"
"41.4000","34.4796","1.2999"
"41.6000","34.6472","1.3040"
"41.8000","34.8136","1.3081"
"42.0000","34.9783","1.3125"
"42.2000","35.1459","1.3169"
"42.4000","35.3143","1.3216"
"42.6000","35.4797","1.3257"
"42.8000","35.6471","1.3297"
"43.0000","35.8126","1.3340"
"43.2000","35.9787","1.3383"
"43.4000","36.1466","1.3427"
"43.6000","36.3133","1.3469"
"43.8000","36.4791","1.3509"
"44.0000","36.6451","1.3552"
"44.2000","36.8136","1.3595"
"44.4000","36.9797","1.3639"
"44.6000","37.1474","1.3677"
"44.8000","37.3138","1.3718"
"45.0000","37.4788","1.3759"
"45.2000","37.6460","1.3801"
"45.4000","37.8142","1.3846"
"45.6000","37.9801","1.3885"
"45.8000","38.1467","1.3924"
"46.0000","38.3125","1.3964"
"46.2000","38.4789","1.4007"
"46.4000","38.6464","1.4049"
"46.6000","38.8134","1.4088"
"46.8000","38.9788","1.4127"
"47.0000","39.1451","1.4168"
"47.2000","39.3132","1.4210"
"47.4000","39.4792","1.4251"
"47.6000","39.6472","1.4289"
"47.8000","39.8136","1.4327"
"48.0000","39.9789","1.4368"
"48.2000","40.1461","1.4409"
"48.4000","40.3143","1.4453"
"48.6000","40.4798","1.4490"
"48.8000","40.6466","1.4527"
"49.0000","40.8127","1.4567"
"49.2000","40.9790","1.4608"
"49.4000","41.1464","1.4649"
"49.6000","41.3135","1.4688"
"49.8000","41.4790","1.4725"
"50.0000","41.6452","1.4765"
"50.2000","41.8134","1.4806"
"50.4000","41.9797","1.4846"
"50.6000","42.1472","1.4882"
"50.8000","42.3137","1.4919"
"51.0000","42.4787","1.4958"
"51.2000","42.6461","1.4999"
"51.4000","42.8144","1.5041"
"51.6000","42.9800","1.5078"
"51.8000","43.1468","1.5114"
"52.0000","43.3126","1.5154"
"52.2000","43.4790","1.5194"
"52.4000","43.6465","1.5234"
"52.6000","43.8135","1.5272"
"52.8000","43.9788","1.5308"
"53.0000","44.1451","1.5348"
"53.2000","44.3132","1.5389"
"53.4000","44.4793","1.5428"
"53.6000","44.6473","1.5465"
"53.8000","44.8137","1.5500"
"54.0000","44.9786","1.5539"
"54.2000","45.1457","1.5578"
"54.4000","45.3145","1.5620"
"54.6000","45.4798","1.5656"
"54.8000","45.6468","1.5691"
"55.0000","45.8127","1.5729"
"55.2000","45.9788","1.5769"
"55.4000","46.1465","1.5808"
"55.6000","46.3136","1.5845"
"55.8000","46.4791","1.5882"
"56.0000","46.6452","1.5920"
"56.2000","46.8136","1.5960"
"56.4000","46.9795","1.5999"
"56.6000","47.1476","1.6035"
"56.8000","47.3135","1.6071"
"57.0000","47.4785","1.6109"
"57.2000","47.6461","1.6148"
"57.4000","47.8144","1.6189"
"57.6000","47.9800","1.6225"
"57.8000","48.1466","1.6260"
"58.0000","48.3128","1.6297"
"58.2000","48.4788","1.6335"
"58.4000","48.6464","1.6374"
"58.6000","48.8132","1.6411"
"58.8000","48.9789","1.6448"
"59.0000","49.1450","1.6485"
"59.2000","49.3132","1.6522"
"59.4000","49.4794","1.6561"
"59.6000","49.6469","1.6595"
"59.8000","49.8137","1.6629"
"60.0000","49.9785","1.6666"
"60.2000","50.1460","1.6703"
"60.4000","50.3144","1.6743"
"60.6000","50.4797","1.6777"
"60.8000","50.6466","1.6812"
"61.0000","50.8127","1.6848"
"61.2000","50.9789","1.6886"
"61.4000","51.1466","1.6923"
"61.6000","51.3136","1.6957"
"61.8000","51.4786","1.6990"
"62.0000","51.6451","1.7026"
"62.2000","51.8133","1.7061"
"62.4000","51.9795","1.7097"
"62.6000","52.1473","1.7128"
"62.8000","52.3136","1.7159"
"63.0000","52.4786","1.7193"
"63.2000","52.6463","1.7226"
"63.4000","52.8143","1.7262"
"63.6000","52.9800","1.7293"
"63.8000","53.1469","1.7322"
"64.0000","53.3125","1.7356"
"64.2000","53.4790","1.7390"
"64.4000","53.6463","1.7425"
"64.6000","53.8137","1.7458"
"64.8000","53.9790","1.7492"
"65.0000","54.1450","1.7529"
"65.2000","54.3135","1.7568"
"65.4000","54.4794","1.7605"
"65.6000","54.6469","1.7638"
"65.8000","54.8137","1.7673"
"66.0000","54.9786","1.7710"
"66.2000","55.1458","1.7746"
"66.4000","55.3143","1.7786"
"66.6000","55.4800","1.7821"
"66.8000","55.6469","1.7855"
"67.0000","55.8126","1.7892"
"67.2000","55.9787","1.7930"
"67.4000","56.1465","1.7969"
"67.6000","56.3135","1.8004"
"67.8000","56.4788","1.8040"
"68.0000","56.6447","1.8076"
"68.2000","56.8132","1.8115"
"68.4000","56.9795","1.8153"
"68.6000","57.1473","1.8189"
"68.8000","57.3136","1.8223"
"69.0000","57.4787","1.8261"
"69.2000","57.6460","1.8299"
"69.4000","57.8143","1.8339"
"69.6000","57.9799","1.8373"
"69.8000","58.1466","1.8406"
"70.0000","58.3123","1.8441"
"70.2000","58.4790","1.8479"
"70.4000","58.6463","1.8515"
"70.6000","58.8137","1.8550"
"70.8000","58.9789","1.8584"
"71.0000","59.1450","1.8619"
"71.2000","59.3132","1.8656"
"71.4000","59.4794","1.8692"
"71.6000","59.6472","1.8725"
"71.8000","59.8137","1.8758"
"72.0000","59.9786","1.8792"
"72.2000","60.1459","1.8826"
"72.4000","60.3145","1.8862"
"72.6000","60.4798","1.8891"
"72.8000","60.6468","1.8920"
"73.0000","60.8128","1.8950"
"73.2000","60.9790","1.8983"
"73.4000","61.1465","1.9020"
"73.6000","61.3136","1.9055"
"73.8000","61.4791","1.9092"
"74.0000","61.6451","1.9129"
"74.2000","61.8134","1.9168"
"74.4000","61.9795","1.9206"
"74.6000","62.1474","1.9241"
"74.8000","62.3136","1.9275"
"75.0000","62.4788","1.9312"
"75.2000","62.6460","1.9349"
"75.4000","62.8144","1.9389"
"75.6000","62.9801","1.9422"
"75.8000","63.1470","1.9455"
"76.0000","63.3127","1.9490"
"76.2000","63.4790","1.9527"
"76.4000","63.6465","1.9563"
"76.6000","63.8136","1.9597"
"76.8000","63.9790","1.9631"
"77.0000","64.1448","1.9666"
"77.2000","64.3134","1.9703"
"77.4000","64.4795","1.9738"
"77.6000","64.6473","1.9770"
"77.8000","64.8138","1.9802"
"78.0000","64.9784","1.9835"
"78.2000","65.1457","1.9869"
"78.4000","65.3147","1.9904"
"78.6000","65.4798","1.9929"
"78.8000","65.6468","1.9947"
"79.0000","65.8128","1.9972"
"79.2000","65.9792","2.0006"
"79.4000","66.1467","2.0043"
"79.6000","66.3137","2.0078"
"79.8000","66.4792","2.0112"
"80.0000","66.6451","2.0148"
"80.2000","66.8134","2.0185"
"80.4000","66.9798","2.0222"
"80.6000","67.1474","2.0257"
"80.8000","67.3137","2.0293"
"81.0000","67.4788","2.0331"
"81.2000","67.6460","2.0370"
"81.4000","67.8142","2.0409"
"81.6000","67.9800","2.0445"
"81.8000","68.1469","2.0479"
"82.0000","68.3127","2.0515"
"82.2000","68.4788","2.0553"
"82.4000","68.6465","2.0591"
"82.6000","68.8133","2.0627"
"82.8000","68.9791","2.0663"
"83.0000","69.1449","2.0698"
"83.2000","69.3132","2.0737"
"83.4000","69.4796","2.0774"
"83.6000","69.6473","2.0809"
"83.8000","69.8137","2.0843"
"84.0000","69.9785","2.0880"
"84.2000","70.1460","2.0917"
"84.4000","70.3145","2.0957"
"84.6000","70.4798","2.0991"
"84.8000","70.6469","2.1025"
"85.0000","70.8127","2.1061"
"85.2000","70.9788","2.1098"
"85.4000","71.1465","2.1135"
"85.6000","71.3134","2.1171"
"85.8000","71.4791","2.1205"
"86.0000","71.6451","2.1241"
"86.2000","71.8134","2.1279"
"86.4000","71.9797","2.1315"
"86.6000","72.1474","2.1348"
"86.8000","72.3138","2.1382"
"87.0000","72.4788","2.1419"
"87.2000","72.6459","2.1456"
"87.4000","72.8145","2.1495"
"87.6000","72.9797","2.1528"
"87.8000","73.1467","2.1561"
"88.0000","73.3122","2.1597"
"88.2000","73.4787","2.1635"
"88.4000","73.6464","2.1671"
"88.6000","73.8135","2.1706"
"88.8000","73.9789","2.1741"
"89.0000","74.1450","2.1776"
"89.2000","74.3131","2.1813"
"89.4000","74.4796","2.1850"
"89.6000","74.6472","2.1883"
"89.8000","74.8136","2.1916"
"90.0000","74.9787","2.1952"
"90.2000","75.1459","2.1989"
"90.4000","75.3143","2.2027"
"90.6000","75.4799","2.2061"
"90.8000","75.6467","2.2093"
"91.0000","75.8130","2.2128"
"91.2000","75.9789","2.2164"
"91.4000","76.1466","2.2201"
"91.6000","76.3135","2.2234"
"91.8000","76.4788","2.2269"
"92.0000","76.6452","2.2304"
"92.2000","76.8133","2.2340"
"92.4000","76.9796","2.2377"
"92.6000","77.1472","2.2410"
"92.8000","77.3137","2.2443"
"93.0000","77.4787","2.2479"
"93.2000","77.6454","2.2515"
"93.4000","77.8146","2.2555"
"93.6000","77.9800","2.2587"
"93.8000","78.1469","2.2620"
"94.0000","78.3123","2.2655"
"94.2000","78.4788","2.2693"
"94.4000","78.6466","2.2730"
"94.6000","78.8134","2.2764"
"94.8000","78.9789","2.2798"
"95.0000","79.1449","2.2834"
"95.2000","79.3134","2.2871"
"95.4000","79.4797","2.2908"
"95.6000","79.6472","2.2941"
"95.8000","79.8136","2.2974"
"96.0000","79.9785","2.3010"
"96.2000","80.1459","2.3047"
"96.4000","80.3145","2.3086"
"96.6000","80.4800","2.3119"
"96.8000","80.6468","2.3152"
"97.0000","80.8128","2.3187"
"97.2000","80.9786","2.3223"
"97.4000","81.1464","2.3260"
"97.6000","81.3136","2.3294"
"97.8000","81.4790","2.3329"
"98.0000","81.6449","2.3364"
"98.2000","81.8135","2.3402"
"98.4000","81.9797","2.3438"
"98.6000","82.1471","2.3471"
"98.8000","82.3137","2.3504"
"99.0000","82.4787","2.3541"
"99.2000","82.6459","2.3576"
"99.4000","82.8142","2.3615"
"99.6000","82.9799","2.3648"
"99.8000","83.1467","2.3682"
"100.0000","83.3125","2.3717"
"100.2000","83.4789","2.3753"
"100.4000","83.6465","2.3790"
"100.6000","83.8132","2.3824"
"100.8000","83.9788","2.3857"
"101.0000","84.1452","2.3894"
"101.2000","84.3133","2.3931"
"101.4000","84.4796","2.3968"
"101.6000","84.6470","2.4000"
"101.8000","84.8137","2.4033"
"102.0000","84.9788","2.4070"
"102.2000","85.1460","2.4106"
"102.4000","85.3145","2.4145"
"102.6000","85.4797","2.4177"
"102.8000","85.6468","2.4210"
"103.0000","85.8128","2.4245"
"103.2000","85.9788","2.4281"
"103.4000","86.1465","2.4317"
"103.6000","86.3132","2.4351"
"103.8000","86.4789","2.4384"
"104.0000","86.6451","2.4419"
"104.2000","86.8135","2.4457"
"104.4000","86.9797","2.4492"
"104.6000","87.1469","2.4524"
"104.8000","87.3138","2.4557"
"105.0000","87.4786","2.4592"
"105.2000","87.6458","2.4628"
"105.4000","87.8146","2.4665"
"105.6000","87.9799","2.4697"
"105.8000","88.1467","2.4728"
"106.0000","88.3123","2.4764"
"106.2000","88.4791","2.4801"
"106.4000","88.6465","2.4838"
"106.6000","88.8136","2.4871"
"106.8000","88.9787","2.4903"
"107.0000","89.1449","2.4937"
"107.2000","89.3132","2.4973"
"107.4000","89.4794","2.5008"
"107.6000","89.6471","2.5040"
"107.8000","89.8136","2.5073"
"108.0000","89.9787","2.5109"
"108.2000","90.1460","2.5144"
"108.4000","90.3144","2.5182"
"108.6000","90.4800","2.5213"
"108.8000","90.6469","2.5245"
"109.0000","90.8128","2.5278"
"109.2000","90.9790","2.5314"
"109.4000","91.1464","2.5349"
"109.6000","91.3135","2.5383"
"109.8000","91.4790","2.5415"
"110.0000","91.6453","2.5449"
"110.2000","91.8135","2.5485"
"110.4000","91.9797","2.5520"
"110.6000","92.1472","2.5552"
"110.8000","92.3137","2.5585"
"111.0000","92.4789","2.5620"
"111.2000","92.6460","2.5654"
"111.4000","92.8144","2.5692"
"111.6000","92.9798","2.5722"
"111.8000","93.1468","2.5754"
"112.0000","93.3126","2.5785"
"112.2000","93.4790","2.5822"
"112.4000","93.6465","2.5857"
"112.6000","93.8134","2.5890"
"112.8000","93.9789","2.5922"
"113.0000","94.1452","2.5954"
"113.2000","94.3133","2.5990"
"113.4000","94.4793","2.6023"
"113.6000","94.6473","2.6054"
"113.8000","94.8138","2.6085"
"114.0000","94.9788","2.6117"
"114.2000","95.1461","2.6150"
"114.4000","95.3143","2.6185"
"114.6000","95.4798","2.6212"
"114.8000","95.6469","2.6240"
"115.0000","95.8129","2.6268"
"115.2000","95.9790","2.6297"
"115.4000","96.1464","2.6324"
"115.6000","96.3136","2.6347"
"115.8000","96.4792","2.6362"
"116.0000","96.6449","2.6360"
"116.2000","96.8132","2.6279"
"116.4000","96.9796","2.4146"
"116.6000","97.1471","2.3840"
"116.8000","97.3137","2.3876"
"117.0000","97.4787","2.3958"
"117.2000","97.6458","2.4050"
"117.4000","97.8140","2.4151"
"117.6000","97.9800","2.4258"
"117.8000","98.1469","2.4353"
"118.0000","98.3127","2.4453"
"118.2000","98.4791","2.4532"
"118.4000","98.6464","2.4587"
"118.6000","98.8132","2.4610"
"118.8000","98.9790","2.4620"
"119.0000","99.1453","2.4636"
"119.2000","99.3134","2.4677"
"119.4000","99.4796","2.4743"
"119.6000","99.6472","2.4822"
"119.8000","99.8137","2.4905"
"120.0000","99.9788","2.5000"
"120.2000","100.1457","2.5098"
"120.4000","100.3145","2.5196"
"120.6000","100.4798","2.5281"
"120.8000","100.6469","2.5359"
"121.0000","100.8127","2.5431"
"121.2000","100.9788","2.5491"
"121.4000","101.1468","2.5542"
"121.6000","101.3132","2.5576"
"121.8000","101.4790","2.5598"
"122.0000","101.6451","2.5620"
"122.2000","101.8134","2.5664"
"122.4000","101.9797","2.5712"
"122.6000","102.1472","2.5762"
"122.8000","102.3136","2.5823"
"123.0000","102.4785","2.5890"
"123.2000","102.6462","2.5960"
"123.4000","102.8142","2.6032"
"123.6000","102.9799","2.6096"
"123.8000","103.1470","2.6155"
"124.0000","103.3125","2.6222"
"124.2000","103.4787","2.6281"
"124.4000","103.6465","2.6344"
"124.6000","103.8134","2.6397"
"124.8000","103.9792","2.6449"
"125.0000","104.1450","2.6503"
"125.2000","104.3133","2.6557"
"125.4000","104.4795","2.6609"
"125.6000","104.6472","2.6656"
"125.8000","104.8137","2.6701"
"126.0000","104.9788","2.6747"
"126.2000","105.1458","2.6792"
"126.4000","105.3142","2.6839"
"126.6000","105.4797","2.6879"
"126.8000","105.6463","2.6919"
"127.0000","105.8129","2.6961"
"127.2000","105.9792","2.7004"
"127.4000","106.1466","2.7045"
"127.6000","106.3134","2.7083"
"127.8000","106.4790","2.7121"
"128.0000","106.6454","2.7160"
"128.2000","106.8130","2.7200"
"128.4000","106.9800","2.7240"
"128.6000","107.1472","2.7275"
"128.8000","107.3137","2.7311"
"129.0000","107.4790","2.7349"
"129.2000","107.6460","2.7387"
"129.4000","107.8144","2.7430"
"129.6000","107.9796","2.7465"
"129.8000","108.1467","2.7494"
"130.0000","108.3129","2.7533"
"130.2000","108.4788","2.7570"
"130.4000","108.6462","2.7610"
"130.6000","108.8134","2.7647"
"130.8000","108.9790","2.7683"
"131.0000","109.1454","2.7719"
"131.2000","109.3132","2.7757"
"131.4000","109.4796","2.7792"
"131.6000","109.6471","2.7826"
"131.8000","109.8138","2.7861"
"132.0000","109.9787","2.7898"
"132.2000","110.1460","2.7936"
"132.4000","110.3145","2.7976"
"132.6000","110.4799","2.8009"
"132.8000","110.6466","2.8041"
"133.0000","110.8129","2.8077"
"133.2000","110.9791","2.8114"
"133.4000","111.1467","2.8151"
"133.6000","111.3136","2.8186"
"133.8000","111.4789","2.8221"
"134.0000","111.6452","2.8256"
"134.2000","111.8136","2.8293"
"134.4000","111.9799","2.8330"
"134.6000","112.1471","2.8362"
"134.8000","112.3135","2.8396"
"135.0000","112.4787","2.8433"
"135.2000","112.6461","2.8470"
"135.4000","112.8144","2.8509"
"135.6000","112.9798","2.8542"
"135.8000","113.1469","2.8575"
"136.0000","113.3125","2.8613"
"136.2000","113.4788","2.8648"
"136.4000","113.6466","2.8684"
"136.6000","113.8133","2.8718"
"136.8000","113.9789","2.8753"
"137.0000","114.1451","2.8791"
"137.2000","114.3134","2.8828"
"137.4000","114.4797","2.8865"
"137.6000","114.6470","2.8898"
"137.8000","114.8134","2.8931"
"138.0000","114.9790","2.8968"
"138.2000","115.1457","2.9004"
"138.4000","115.3146","2.9043"
"138.6000","115.4795","2.9077"
"138.8000","115.6467","2.9110"
"139.0000","115.8129","2.9146"
"139.2000","115.9780","2.9181"
"139.4000","116.1467","2.9220"
"139.6000","116.3134","2.9253"
"139.8000","116.4791","2.9288"
"140.0000","116.6454","2.9323"
"140.2000","116.8135","2.9361"
"140.4000","116.9799","2.9398"
"140.6000","117.1472","2.9430"
"140.8000","117.3135","2.9463"
"141.0000","117.4787","2.9499"
"141.2000","117.6462","2.9536"
"141.4000","117.8144","2.9575"
"141.6000","117.9798","2.9608"
"141.8000","118.1469","2.9642"
"142.0000","118.3127","2.9677"
"142.2000","118.4790","2.9714"
"142.4000","118.6464","2.9751"
"142.6000","118.8134","2.9785"
"142.8000","118.9792","2.9819"
"143.0000","119.1449","2.9855"
"143.2000","119.3134","2.9894"
"143.4000","119.4795","2.9930"
"143.6000","119.6474","2.9963"
"143.8000","119.8138","2.9997"
"144.0000","119.9788","3.0032"
"144.2000","120.1460","3.0070"
"144.4000","120.3143","3.0109"
"144.6000","120.4796","3.0142"
"144.8000","120.6471","3.0176"
"145.0000","120.8129","3.0211"
"145.2000","120.9791","3.0248"
"145.4000","121.1467","3.0285"
"145.6000","121.3135","3.0319"
"145.8000","121.4791","3.0352"
"146.0000","121.6452","3.0389"
"146.2000","121.8134","3.0426"
"146.4000","121.9797","3.0462"
"146.6000","122.1473","3.0496"
"146.8000","122.3137","3.0529"
"147.0000","122.4792","3.0565"
"147.2000","122.6461","3.0602"
"147.4000","122.8145","3.0641"
"147.6000","122.9799","3.0673"
"147.8000","123.1470","3.0706"
"148.0000","123.3126","3.0740"
"148.2000","123.4790","3.0778"
"148.4000","123.6464","3.0815"
"148.6000","123.8136","3.0850"
"148.8000","123.9791","3.0884"
"149.0000","124.1452","3.0919"
"149.2000","124.3136","3.0957"
"149.4000","124.4797","3.0994"
"149.6000","124.6474","3.1028"
"149.8000","124.8138","3.1062"
"150.0000","124.9787","3.1098"
"150.2000","125.1461","3.1135"
"150.4000","125.3146","3.1175"
"150.6000","125.4799","3.1208"
"150.8000","125.6470","3.1241"
"151.0000","125.8128","3.1277"
"151.2000","125.9791","3.1314"
"151.4000","126.1466","3.1351"
"151.6000","126.3138","3.1386"
"151.8000","126.4790","3.1420"
"152.0000","126.6451","3.1457"
"152.2000","126.8134","3.1494"
"152.4000","126.9794","3.1530"
"152.6000","127.1474","3.1565"
"152.8000","127.3137","3.1597"
"153.0000","127.4786","3.1635"
"153.2000","127.6461","3.1672"
"153.4000","127.8144","3.1712"
"153.6000","127.9798","3.1745"
"153.8000","128.1469","3.1777"
"154.0000","128.3126","3.1814"
"154.2000","128.4790","3.1851"
"154.4000","128.6464","3.1888"
"154.6000","128.8134","3.1924"
"154.8000","128.9791","3.1958"
"155.0000","129.1450","3.1994"
"155.2000","129.3134","3.2032"
"155.4000","129.4796","3.2069"
"155.6000","129.6472","3.2102"
"155.8000","129.8137","3.2136"
"156.0000","129.9785","3.2172"
"156.2000","130.1461","3.2211"
"156.4000","130.3145","3.2251"
"156.6000","130.4800","3.2284"
"156.8000","130.6469","3.2319"
"157.0000","130.8126","3.2353"
"157.2000","130.9792","3.2391"
"157.4000","131.1464","3.2428"
"157.6000","131.3135","3.2462"
"157.8000","131.4788","3.2497"
"158.0000","131.6450","3.2533"
"158.2000","131.8136","3.2571"
"158.4000","131.9794","3.2608"
"158.6000","132.1474","3.2642"
"158.8000","132.3138","3.2676"
"159.0000","132.4786","3.2712"
"159.2000","132.6459","3.2750"
"159.4000","132.8143","3.2789"
"159.6000","132.9801","3.2824"
"159.8000","133.1471","3.2858"
"160.0000","133.3124","3.2893"
"160.2000","133.4790","3.2930"
"160.4000","133.6467","3.2968"
"160.6000","133.8134","3.3003"
"160.8000","133.9789","3.3037"
"161.0000","134.1443","3.3073"
"161.2000","134.3137","3.3113"
"161.4000","134.4794","3.3148"
"161.6000","134.6474","3.3183"
"161.8000","134.8136","3.3217"
"162.0000","134.9786","3.3254"
"162.2000","135.1461","3.3291"
"162.4000","135.3144","3.3332"
"162.6000","135.4799","3.3366"
"162.8000","135.6467","3.3400"
"163.0000","135.8127","3.3436"
"163.2000","135.9791","3.3473"
"163.4000","136.1466","3.3510"
"163.6000","136.3137","3.3545"
"163.8000","136.4790","3.3580"
"164.0000","136.6450","3.3617"
"164.2000","136.8135","3.3655"
"164.4000","136.9797","3.3691"
"164.6000","137.1473","3.3725"
"164.8000","137.3136","3.3759"
"165.0000","137.4787","3.3796"
"165.2000","137.6461","3.3833"
"165.4000","137.8143","3.3873"
"165.6000","137.9796","3.3907"
"165.8000","138.1467","3.3941"
"166.0000","138.3125","3.3976"
"166.2000","138.4794","3.4015"
"166.4000","138.6465","3.4053"
"166.6000","138.8135","3.4088"
"166.8000","138.9790","3.4122"
"167.0000","139.1450","3.4158"
"167.2000","139.3136","3.4196"
"167.4000","139.4794","3.4233"
"167.6000","139.6470","3.4266"
"167.8000","139.8138","3.4300"
"168.0000","139.9784","3.4336"
"168.2000","140.1460","3.4374"
"168.4000","140.3143","3.4413"
"168.6000","140.4796","3.4447"
"168.8000","140.6468","3.4481"
"169.0000","140.8125","3.4516"
"169.2000","140.9789","3.4554"
"169.4000","141.1463","3.4591"
"169.6000","141.3136","3.4625"
"169.8000","141.4790","3.4659"
"170.0000","141.6450","3.4695"
"170.2000","141.8135","3.4732"
"170.4000","141.9794","3.4768"
"170.6000","142.1473","3.4802"
"170.8000","142.3136","3.4835"
"171.0000","142.4787","3.4871"
"171.2000","142.6459","3.4909"
"171.4000","142.8141","3.4948"
"171.6000","142.9799","3.4981"
"171.8000","143.1467","3.5014"
"172.0000","143.3121","3.5048"
"172.2000","143.4791","3.5087"
"172.4000","143.6463","3.5124"
"172.6000","143.8137","3.5159"
"172.8000","143.9792","3.5194"
"173.0000","144.1451","3.5230"
"173.2000","144.3134","3.5268"
"173.4000","144.4794","3.5304"
"173.6000","144.6472","3.5338"
"173.8000","144.8134","3.5370"
"174.0000","144.9785","3.5407"
"174.2000","145.1459","3.5444"
"174.4000","145.3144","3.5483"
"174.6000","145.4797","3.5514"
"174.8000","145.6468","3.5547"
"175.0000","145.8129","3.5581"
"175.2000","145.9789","3.5617"
"175.4000","146.1463","3.5652"
"175.6000","146.3132","3.5685"
"175.8000","146.4790","3.5719"
"176.0000","146.6453","3.5753"
"176.2000","146.8136","3.5788"
"176.4000","146.9797","3.5821"
"176.6000","147.1471","3.5851"
"176.8000","147.3136","3.5880"
"177.0000","147.4788","3.5914"
"177.2000","147.6460","3.5947"
"177.4000","147.8142","3.5981"
"177.6000","147.9797","3.6010"
"177.8000","148.1468","3.6040"
"178.0000","148.3124","3.6069"
"178.2000","148.4787","3.6101"
"178.4000","148.6464","3.6131"
"178.6000","148.8135","3.6159"
"178.8000","148.9791","3.6186"
"179.0000","149.1451","3.6213"
"179.2000","149.3133","3.6239"
"179.4000","149.4795","3.6261"
"179.6000","149.6472","3.6276"
"179.8000","149.8136","3.6280"
"180.0000","149.9783","3.6264"
"180.2000","150.1460","3.6184"
"180.4000","150.3146","3.4075"
"180.6000","150.4800","3.0795"
"180.8000","150.6469","3.0225"
"181.0000","150.8128","3.0190"
"181.2000","150.9788","3.0233"
"181.4000","151.1464","3.0306"
"181.6000","151.3136","3.0393"
"181.8000","151.4790","3.0489"
"182.0000","151.6450","3.0592"
"182.2000","151.8132","3.0700"
"182.4000","151.9798","3.0812"
"182.6000","152.1472","3.0922"
"182.8000","152.3136","3.1033"
"183.0000","152.4789","3.1149"
"183.2000","152.6458","3.1264"
"183.4000","152.8142","3.1381"
"183.6000","152.9797","3.1493"
"183.8000","153.1471","3.1603"
"184.0000","153.3128","3.1714"
"184.2000","153.4790","3.1823"
"184.4000","153.6464","3.1925"
"184.6000","153.8134","3.2017"
"184.8000","153.9790","3.2097"
"185.0000","154.1451","3.2165"
"185.2000","154.3132","3.2201"
"185.4000","154.4793","3.2099"
"185.6000","154.6473","3.0690"
"185.8000","154.8138","3.0732"
"186.0000","154.9785","3.0847"
"186.2000","155.1459","3.0961"
"186.4000","155.3143","3.1069"
"186.6000","155.4799","3.1146"
"186.8000","155.6470","3.1208"
"187.0000","155.8124","3.1224"
"187.2000","155.9787","3.1169"
"187.4000","156.1466","3.1222"
"187.6000","156.3137","3.1318"
"187.8000","156.4790","3.1431"
"188.0000","156.6451","3.1551"
"188.2000","156.8134","3.1673"
"188.4000","156.9797","3.1791"
"188.6000","157.1473","3.1899"
"188.8000","157.3138","3.2001"
"189.0000","157.4787","3.2091"
"189.2000","157.6459","3.2196"
"189.4000","157.8144","3.2309"
"189.6000","157.9797","3.2412"
"189.8000","158.1469","3.2505"
"190.0000","158.3127","3.2586"
"190.2000","158.4789","3.2659"
"190.4000","158.6464","3.2740"
"190.6000","158.8136","3.2810"
"190.8000","158.9789","3.2846"
"191.0000","159.1449","3.2908"
"191.2000","159.3133","3.2995"
"191.4000","159.4796","3.3095"
"191.6000","159.6472","3.3196"
"191.8000","159.8139","3.3303"
"192.0000","159.9786","3.3416"
"192.2000","160.1461","3.3528"
"192.4000","160.3145","3.3637"
"192.6000","160.4799","3.3737"
"192.8000","160.6468","3.3832"
"193.0000","160.8129","3.3919"
"193.2000","160.9789","3.4011"
"193.4000","161.1465","3.4104"
"193.6000","161.3136","3.4189"
"193.8000","161.4789","3.4266"
"193.9570","161.6118","2.0245"