File: tensile/test_1.is_qtest_Exports/test_1_1.csv
Time,Displacement,Force
(s),(mm),(kgf)
"0.0000","0.0000","0.0007"
"0.1000","0.0561","0.0034"
"0.2000","0.1364","0.0040"
"0.3000","0.2198","0.0078"
"0.4000","0.3014","0.0098"
"0.5000","0.3841","0.0115"
"0.6000","0.4684","0.0141"
"0.7000","0.5512","0.0152"
"0.8000","0.6364","0.0179"
"0.9000","0.7178","0.0191"
"1.0000","0.8017","0.0216"
"1.1000","0.8851","0.0232"
"1.2000","0.9674","0.0252"
"1.3000","1.0523","0.0270"
"1.4000","1.1347","0.0290"
"1.5000","1.2187","0.0306"
"1.6000","1.3021","0.0330"
"1.7000","1.3846","0.0347"
"1.8000","1.4680","0.0367"
"1.9000","1.5510","0.0388"
"2.0000","1.6344","0.0402"
"2.1000","1.7193","0.0429"
"2.2000","1.8012","0.0444"
"2.3000","1.8857","0.0467"
"2.4000","1.9665","0.0485"
"2.5000","2.0513","0.0502"
"2.6000","2.1361","0.0525"
"2.7000","2.2186","0.0542"
"2.8000","2.3026","0.0566"
"2.9000","2.3838","0.0583"
"3.0000","2.4678","0.0601"
"3.1000","2.5515","0.0624"
"3.2000","2.6347","0.0641"
"3.3000","2.7190","0.0664"
"3.4000","2.8011","0.0685"
"3.5000","2.8838","0.0701"
"3.6000","2.9684","0.0726"
"3.7000","3.0507","0.0741"
"3.8000","3.1361","0.0764"
"3.9000","3.2178","0.0783"
"4.0000","3.3018","0.0801"
"4.1000","3.3849","0.0825"
"4.2000","3.4674","0.0841"
"4.3000","3.5521","0.0864"
"4.4000","3.6343","0.0883"
"4.5000","3.7185","0.0902"
"4.6000","3.8019","0.0926"
"4.7000","3.8841","0.0943"
"4.8000","3.9678","0.0965"
"4.9000","4.0508","0.0985"
"5.0000","4.1344","0.1002"
"5.1000","4.2192","0.1027"
"5.2000","4.3009","0.1045"
"5.3000","4.3856","0.1068"
"5.4000","4.4666","0.1088"
"5.5000","4.5513","0.1104"
"5.6000","4.6360","0.1129"
"5.7000","4.7186","0.1146"
"5.8000","4.8023","0.1174"
"5.9000","4.8837","0.1191"
"6.0000","4.9677","0.1210"
"6.1000","5.0514","0.1232"
"6.2000","5.1349","0.1250"
"6.3000","5.2192","0.1274"
"6.4000","5.3010","0.1296"
"6.5000","5.3837","0.1314"
"6.6000","5.4684","0.1338"
"6.7000","5.5509","0.1354"
"6.8000","5.6361","0.1376"
"6.9000","5.7179","0.1398"
"7.0000","5.8018","0.1416"
"7.1000","5.8852","0.1441"
"7.2000","5.9674","0.1458"
"7.3000","6.0523","0.1480"
"7.4000","6.1342","0.1500"
"7.5000","6.2185","0.1520"
"7.6000","6.3019","0.1545"
"7.7000","6.3842","0.1563"
"7.8000","6.4682","0.1587"
"7.9000","6.5508","0.1607"
"8.0000","6.6344","0.1625"
"8.1000","6.7192","0.1651"
"8.2000","6.8013","0.1670"
"8.3000","6.8858","0.1694"
"8.4000","6.9666","0.1716"
"8.5000","7.0514","0.1735"
"8.6000","7.1358","0.1760"
"8.7000","7.2187","0.1779"
"8.8000","7.3024","0.1805"
"8.9000","7.3837","0.1826"
"9.0000","7.4678","0.1845"
"9.1000","7.5516","0.1872"
"9.2000","7.6349","0.1890"
"9.3000","7.7190","0.1916"
"9.4000","7.8011","0.1939"
"9.5000","7.8838","0.1959"
"9.6000","7.9682","0.1986"
"9.7000","8.0509","0.2005"
"9.8000","8.1358","0.2029"
"9.9000","8.2175","0.2053"
"10.0000","8.3014","0.2074"
"10.1000","8.3851","0.2101"
"10.2000","8.4676","0.2121"
"10.3000","8.5522","0.2146"
"10.4000","8.6342","0.2168"
"10.5000","8.7187","0.2191"
"10.6000","8.8020","0.2219"
"10.7000","8.8843","0.2239"
"10.8000","8.9680","0.2264"
"10.9000","9.0508","0.2288"
"11.0000","9.1343","0.2310"
"11.1000","9.2192","0.2338"
"11.2000","9.3010","0.2359"
"11.3000","9.3855","0.2385"
"11.4000","9.4667","0.2409"
"11.5000","9.5510","0.2431"
"11.6000","9.6359","0.2459"
"11.7000","9.7185","0.2484"
"11.8000","9.8024","0.2511"
"11.9000","9.8833","0.2533"
"12.0000","9.9676","0.2556"
"12.1000","10.0516","0.2583"
"12.2000","10.1350","0.2605"
"12.3000","10.2191","0.2633"
"12.4000","10.3011","0.2659"
"12.5000","10.3838","0.2681"
"12.6000","10.4684","0.2711"
"12.7000","10.5510","0.2732"
"12.8000","10.6360","0.2760"
"12.9000","10.7177","0.2786"
"13.0000","10.8015","0.2810"
"13.1000","10.8848","0.2840"
"13.2000","10.9674","0.2862"
"13.3000","11.0523","0.2890"
"13.4000","11.1343","0.2915"
"13.5000","11.2187","0.2941"
"13.6000","11.3018","0.2971"
"13.7000","11.3843","0.2995"
"13.8000","11.4680","0.3023"
"13.9000","11.5507","0.3049"
"14.0000","11.6343","0.3075"
"14.1000","11.7191","0.3106"
"14.2000","11.8011","0.3131"
"14.3000","11.8857","0.3161"
"14.4000","11.9667","0.3187"
"14.5000","12.0510","0.3211"
"14.6000","12.1359","0.3243"
"14.7000","12.2187","0.3268"
"14.8000","12.3025","0.3299"
"14.9000","12.3837","0.3325"
"15.0000","12.4677","0.3351"
"15.1000","12.5515","0.3383"
"15.2000","12.6348","0.3407"
"15.3000","12.7192","0.3439"
"15.4000","12.8012","0.3467"
"15.5000","12.8837","0.3494"
"15.6000","12.9683","0.3526"
"15.7000","13.0507","0.3551"
"15.8000","13.1360","0.3583"
"15.9000","13.2177","0.3611"
"16.0000","13.3014","0.3638"
"16.1000","13.3850","0.3671"
"16.2000","13.4674","0.3695"
"16.3000","13.5523","0.3728"
"16.4000","13.6345","0.3756"
"16.5000","13.7187","0.3784"
"16.6000","13.8020","0.3817"
"16.7000","13.8842","0.3843"
"16.8000","13.9681","0.3874"
"16.9000","14.0510","0.3903"
"17.0000","14.1343","0.3930"
"17.1000","14.2191","0.3964"
"17.2000","14.3011","0.3990"
"17.3000","14.3854","0.4022"
"17.4000","14.4667","0.4050"
"17.5000","14.5512","0.4076"
"17.6000","14.6357","0.4108"
"17.7000","14.7186","0.4134"
"17.8000","14.8021","0.4166"
"17.9000","14.8834","0.4193"
"18.0000","14.9676","0.4217"
"18.1000","15.0516","0.4249"
"18.2000","15.1350","0.4273"
"18.3000","15.2191","0.4305"
"18.4000","15.3012","0.4333"
"18.5000","15.3836","0.4357"
"18.6000","15.4683","0.4388"
"18.7000","15.5510","0.4412"
"18.8000","15.6363","0.4441"
"18.9000","15.7177","0.4468"
"19.0000","15.8017","0.4492"
"19.1000","15.8847","0.4522"
"19.2000","15.9678","0.4544"
"19.3000","16.0522","0.4572"
"19.4000","16.1344","0.4596"
"19.5000","16.2185","0.4620"
"19.6000","16.3018","0.4650"
"19.7000","16.3842","0.4672"
"19.8000","16.4681","0.4699"
"19.9000","16.5509","0.4724"
"20.0000","16.6341","0.4745"
"20.1000","16.7193","0.4775"
"20.2000","16.8014","0.4797"
"20.3000","16.8859","0.4824"
"20.4000","16.9667","0.4847"
"20.5000","17.0513","0.4868"
"20.6000","17.1359","0.4896"
"20.7000","17.2190","0.4917"
"20.8000","17.3024","0.4944"
"20.9000","17.3835","0.4967"
"21.0000","17.4679","0.4989"
"21.1000","17.5515","0.5015"
"21.2000","17.6350","0.5035"
"21.3000","17.7190","0.5062"
"21.4000","17.8010","0.5086"
"21.5000","17.8838","0.5107"
"21.6000","17.9681","0.5133"
"21.7000","18.0509","0.5154"
"21.8000","18.1361","0.5179"
"21.9000","18.2176","0.5202"
"22.0000","18.3014","0.5223"
"22.1000","18.3851","0.5250"
"22.2000","18.4674","0.5268"
"22.3000","18.5523","0.5293"
"22.4000","18.6344","0.5315"
"22.5000","18.7187","0.5336"
"22.6000","18.8018","0.5363"
"22.7000","18.8844","0.5382"
"22.8000","18.9681","0.5407"
"22.9000","19.0507","0.5428"
"23.0000","19.1342","0.5448"
"23.1000","19.2194","0.5475"
"23.2000","19.3013","0.5494"
"23.3000","19.3856","0.5519"
"23.4000","19.4666","0.5540"
"23.5000","19.5513","0.5559"
"23.6000","19.6357","0.5584"
"23.7000","19.7183","0.5603"
"23.8000","19.8023","0.5628"
"23.9000","19.8836","0.5649"
"24.0000","19.9675","0.5668"
"24.1000","20.0516","0.5693"
"24.2000","20.1350","0.5712"
"24.3000","20.2191","0.5736"
"24.4000","20.3013","0.5757"
"24.5000","20.3837","0.5776"
"24.6000","20.4683","0.5802"
"24.7000","20.5508","0.5820"
"24.8000","20.6363","0.5844"
"24.9000","20.7178","0.5865"
"25.0000","20.8012","0.5885"
"25.1000","20.8850","0.5909"
"25.2000","20.9680","0.5927"
"25.3000","21.0524","0.5950"
"25.4000","21.1345","0.5969"
"25.5000","21.2189","0.5989"
"25.6000","21.3019","0.6014"
"25.7000","21.3842","0.6030"
"25.8000","21.4681","0.6054"
"25.9000","21.5508","0.6074"
"26.0000","21.6342","0.6092"
"26.1000","21.7194","0.6117"
"26.2000","21.8012","0.6135"
"26.3000","21.8860","0.6158"
"26.4000","21.9665","0.6177"
"26.5000","22.0513","0.6195"
"26.6000","22.1360","0.6219"
"26.7000","22.2186","0.6236"
"26.8000","22.3026","0.6260"
"26.9000","22.3838","0.6279"
"27.0000","22.4679","0.6297"
"27.1000","22.5514","0.6320"
"27.2000","22.6346","0.6336"
"27.3000","22.7191","0.6360"
"27.4000","22.8013","0.6380"
"27.5000","22.8839","0.6398"
"27.6000","22.9681","0.6422"
"27.7000","23.0507","0.6438"
"27.8000","23.1361","0.6461"
"27.9000","23.2178","0.6480"
"28.0000","23.3018","0.6498"
"28.1000","23.3852","0.6521"
"28.2000","23.4677","0.6537"
"28.3000","23.5521","0.6558"
"28.4000","23.6344","0.6578"
"28.5000","23.7190","0.6596"
"28.6000","23.8017","0.6619"
"28.7000","23.8843","0.6635"
"28.8000","23.9682","0.6656"
"28.9000","24.0511","0.6675"
"29.0000","24.1345","0.6692"
"29.1000","24.2191","0.6715"
"29.2000","24.3011","0.6732"
"29.3000","24.3854","0.6753"
"29.4000","24.4665","0.6772"
"29.5000","24.5511","0.6788"
"29.6000","24.6359","0.6811"
"29.7000","24.7188","0.6826"
"29.8000","24.8023","0.6848"
"29.9000","24.8837","0.6867"
"30.0000","24.9677","0.6884"
"30.1000","25.0515","0.6905"
"30.2000","25.1349","0.6921"
"30.3000","25.2190","0.6943"
"30.4000","25.3012","0.6962"
"30.5000","25.3839","0.6979"
"30.6000","25.4684","0.7001"
"30.7000","25.5508","0.7015"
"30.8000","25.6362","0.7037"
"30.9000","25.7184","0.7056"
"31.0000","25.8017","0.7072"
"31.1000","25.8850","0.7094"
"31.2000","25.9674","0.7109"
"31.3000","26.0522","0.7128"
"31.4000","26.1343","0.7145"
"31.5000","26.2189","0.7164"
"31.6000","26.3017","0.7186"
"31.7000","26.3844","0.7200"
"31.8000","26.4682","0.7221"
"31.9000","26.5510","0.7238"
"32.0000","26.6342","0.7254"
"32.1000","26.7193","0.7277"
"32.2000","26.8012","0.7292"
"32.3000","26.8855","0.7312"
"32.4000","26.9668","0.7330"
"32.5000","27.0513","0.7344"
"32.6000","27.1359","0.7367"
"32.7000","27.2187","0.7381"
"32.8000","27.3026","0.7402"
"32.9000","27.3838","0.7419"
"33.0000","27.4678","0.7435"
"33.1000","27.5516","0.7456"
"33.2000","27.6346","0.7469"
"33.3000","27.7188","0.7491"
"33.4000","27.8014","0.7509"
"33.5000","27.8837","0.7524"
"33.6000","27.9680","0.7545"
"33.7000","28.0508","0.7560"
"33.8000","28.1362","0.7579"
"33.9000","28.2177","0.7596"
"34.0000","28.3017","0.7612"
"34.1000","28.3852","0.7633"
"34.2000","28.4676","0.7646"
"34.3000","28.5521","0.7666"
"34.4000","28.6347","0.7683"
"34.5000","28.7188","0.7699"
"34.6000","28.8017","0.7721"
"34.7000","28.8841","0.7734"
"34.8000","28.9681","0.7754"
"34.9000","29.0509","0.7770"
"35.0000","29.1342","0.7785"
"35.1000","29.2193","0.7807"
"35.2000","29.3010","0.7821"
"35.3000","29.3855","0.7841"
"35.4000","29.4666","0.7857"
"35.5000","29.5512","0.7872"
"35.6000","29.6359","0.7892"
"35.7000","29.7185","0.7907"
"35.8000","29.8024","0.7927"
"35.9000","29.8836","0.7943"
"36.0000","29.9679","0.7958"
"36.1000","30.0514","0.7977"
"36.2000","30.1351","0.7991"
"36.3000","30.2191","0.8011"
"36.4000","30.3011","0.8029"
"36.5000","30.3838","0.8043"
"36.6000","30.4682","0.8064"
"36.7000","30.5506","0.8076"
"36.8000","30.6362","0.8095"
"36.9000","30.7180","0.8111"
"37.0000","30.8017","0.8127"
"37.1000","30.8850","0.8148"
"37.2000","30.9676","0.8160"
"37.3000","31.0517","0.8178"
"37.4000","31.1342","0.8195"
"37.5000","31.2190","0.8210"
"37.6000","31.3020","0.8230"
"37.7000","31.3843","0.8243"
"37.8000","31.4679","0.8262"
"37.9000","31.5510","0.8277"
"38.0000","31.6342","0.8291"
"38.1000","31.7192","0.8312"
"38.2000","31.8013","0.8325"
"38.3000","31.8856","0.8344"
"38.4000","31.9670","0.8360"
"38.5000","32.0513","0.8373"
"38.6000","32.1360","0.8393"
"38.7000","32.2187","0.8406"
"38.8000","32.3022","0.8426"
"38.9000","32.3837","0.8440"
"39.0000","32.4675","0.8455"
"39.1000","32.5513","0.8474"
"39.2000","32.6348","0.8486"
"39.3000","32.7190","0.8506"
"39.4000","32.8014","0.8522"
"39.5000","32.8837","0.8536"
"39.6000","32.9684","0.8556"
"39.7000","33.0508","0.8568"
"39.8000","33.1361","0.8586"
"39.9000","33.2179","0.8601"
"40.0000","33.3014","0.8616"
"40.1000","33.3848","0.8636"
"40.2000","33.4675","0.8648"
"40.3000","33.5519","0.8665"
"40.4000","33.6343","0.8681"
"40.5000","33.7186","0.8694"
"40.6000","33.8015","0.8715"
"40.7000","33.8843","0.8727"
"40.8000","33.9680","0.8746"
"40.9000","34.0508","0.8760"
"41.0000","34.1344","0.8774"
"41.1000","34.2190","0.8794"
"41.2000","34.3013","0.8807"
"41.3000","34.3853","0.8825"
"41.4000","34.4666","0.8839"
"41.5000","34.5514","0.8853"
"41.6000","34.6347","0.8871"
"41.7000","34.7184","0.8883"
"41.8000","34.8027","0.8902"
"41.9000","34.8838","0.8917"
"42.0000","34.9678","0.8931"
"42.1000","35.0513","0.8949"
"42.2000","35.1350","0.8961"
"42.3000","35.2191","0.8980"
"42.4000","35.3012","0.8995"
"42.5000","35.3837","0.9009"
"42.6000","35.4682","0.9027"
"42.7000","35.5507","0.9039"
"42.8000","35.6361","0.9057"
"42.9000","35.7179","0.9072"
"43.0000","35.8015","0.9085"
"43.1000","35.8850","0.9104"
"43.2000","35.9676","0.9116"
"43.3000","36.0519","0.9133"
"43.4000","36.1346","0.9147"
"43.5000","36.2190","0.9161"
"43.6000","36.3019","0.9181"
"43.7000","36.3842","0.9192"
"43.8000","36.4681","0.9210"
"43.9000","36.5509","0.9225"
"44.0000","36.6341","0.9237"
"44.1000","36.7194","0.9257"
"44.2000","36.8013","0.9269"
"44.3000","36.8858","0.9287"
"44.4000","36.9667","0.9300"
"44.5000","37.0514","0.9313"
"44.6000","37.1362","0.9331"
"44.7000","37.2187","0.9343"
"44.8000","37.3025","0.9361"
"44.9000","37.3837","0.9375"
"45.0000","37.4677","0.9387"
"45.1000","37.5513","0.9405"
"45.2000","37.6348","0.9417"
"45.3000","37.7189","0.9435"
"45.4000","37.8010","0.9450"
"45.5000","37.8839","0.9463"
"45.6000","37.9684","0.9482"
"45.7000","38.0508","0.9493"
"45.8000","38.1361","0.9510"
"45.9000","38.2177","0.9524"
"46.0000","38.3016","0.9538"
"46.1000","38.3851","0.9556"
"46.2000","38.4675","0.9566"
"46.3000","38.5522","0.9583"
"46.4000","38.6343","0.9597"
"46.5000","38.7187","0.9610"
"46.6000","38.8018","0.9629"
"46.7000","38.8840","0.9640"
"46.8000","38.9681","0.9658"
"46.9000","39.0508","0.9671"
"47.0000","39.1339","0.9684"
"47.1000","39.2191","0.9703"
"47.2000","39.3008","0.9715"
"47.3000","39.3850","0.9732"
"47.4000","39.4669","0.9745"
"47.5000","39.5511","0.9757"
"47.6000","39.6360","0.9776"
"47.7000","39.7188","0.9787"
"47.8000","39.8022","0.9805"
"47.9000","39.8836","0.9818"
"48.0000","39.9674","0.9830"
"48.1000","40.0517","0.9849"
"48.2000","40.1349","0.9859"
"48.3000","40.2191","0.9877"
"48.4000","40.3012","0.9891"
"48.5000","40.3836","0.9903"
"48.6000","40.4683","0.9922"
"48.7000","40.5508","0.9932"
"48.8000","40.6360","0.9948"
"48.9000","40.7178","0.9963"
"49.0000","40.8013","0.9976"
"49.1000","40.8849","0.9993"
"49.2000","40.9675","1.0004"
"49.3000","41.0521","1.0020"
"49.4000","41.1344","1.0033"
"49.5000","41.2188","1.0046"
"49.6000","41.3019","1.0065"
"49.7000","41.3840","1.0076"
"49.8000","41.4679","1.0092"
"49.9000","41.5509","1.0106"
"50.0000","41.6343","1.0118"
"50.1000","41.7193","1.0137"
"50.2000","41.8011","1.0148"
"50.3000","41.8856","1.0164"
"50.4000","41.9668","1.0177"
"50.5000","42.0511","1.0189"
"50.6000","42.1359","1.0206"
"50.7000","42.2185","1.0217"
"50.8000","42.3022","1.0234"
"50.9000","42.3837","1.0248"
"51.0000","42.4677","1.0259"
"51.1000","42.5514","1.0277"
"51.2000","42.6347","1.0287"
"51.3000","42.7189","1.0304"
"51.4000","42.8012","1.0318"
"51.5000","42.8840","1.0330"
"51.6000","42.9683","1.0347"
"51.7000","43.0509","1.0358"
"51.8000","43.1359","1.0374"
"51.9000","43.2176","1.0388"
"52.0000","43.3015","1.0400"
"52.1000","43.3851","1.0418"
"52.2000","43.4677","1.0428"
"52.3000","43.5520","1.0444"
"52.4000","43.6345","1.0457"
"52.5000","43.7190","1.0470"
"52.6000","43.8018","1.0487"
"52.7000","43.8841","1.0497"
"52.8000","43.9678","1.0513"
"52.9000","44.0507","1.0527"
"53.0000","44.1345","1.0539"
"53.1000","44.2192","1.0556"
"53.2000","44.3011","1.0567"
"53.3000","44.3854","1.0583"
"53.4000","44.4664","1.0596"
"53.5000","44.5511","1.0607"
"53.6000","44.6358","1.0624"
"53.7000","44.7184","1.0634"
"53.8000","44.8023","1.0652"
"53.9000","44.8835","1.0664"
"54.0000","44.9677","1.0676"
"54.1000","45.0516","1.0692"
"54.2000","45.1350","1.0702"
"54.3000","45.2189","1.0719"
"54.4000","45.3010","1.0733"
"54.5000","45.3838","1.0745"
"54.6000","45.4684","1.0762"
"54.7000","45.5509","1.0771"
"54.8000","45.6362","1.0787"
"54.9000","45.7175","1.0800"
"55.0000","45.8014","1.0812"
"55.1000","45.8853","1.0830"
"55.2000","45.9676","1.0839"
"55.3000","46.0522","1.0854"
"55.4000","46.1345","1.0868"
"55.5000","46.2187","1.0880"
"55.6000","46.3022","1.0897"
"55.7000","46.3843","1.0907"
"55.8000","46.4682","1.0923"
"55.9000","46.5506","1.0936"
"56.0000","46.6347","1.0946"
"56.1000","46.7192","1.0964"
"56.2000","46.8013","1.0975"
"56.3000","46.8857","1.0990"
"56.4000","46.9669","1.1003"
"56.5000","47.0512","1.1013"
"56.6000","47.1362","1.1030"
"56.7000","47.2187","1.1040"
"56.8000","47.3023","1.1056"
"56.9000","47.3834","1.1069"
"57.0000","47.4677","1.1080"
"57.1000","47.5517","1.1096"
"57.2000","47.6349","1.1106"
"57.3000","47.7190","1.1123"
"57.4000","47.8012","1.1136"
"57.5000","47.8837","1.1147"
"57.6000","47.9684","1.1164"
"57.7000","48.0507","1.1173"
"57.8000","48.1362","1.1189"
"57.9000","48.2175","1.1202"
"58.0000","48.3015","1.1213"
"58.1000","48.3850","1.1230"
"58.2000","48.4677","1.1239"
"58.3000","48.5522","1.1254"
"58.4000","48.6343","1.1267"
"58.5000","48.7186","1.1278"
"58.6000","48.8015","1.1295"
"58.7000","48.8842","1.1306"
"58.8000","48.9681","1.1321"
"58.9000","49.0508","1.1334"
"59.0000","49.1343","1.1344"
"59.1000","49.2191","1.1362"
"59.2000","49.3012","1.1372"
"59.3000","49.3853","1.1387"
"59.4000","49.4667","1.1399"
"59.5000","49.5510","1.1410"
"59.6000","49.6359","1.1426"
"59.7000","49.7185","1.1436"
"59.8000","49.8023","1.1452"
"59.9000","49.8836","1.1464"
"60.0000","49.9677","1.1475"
"60.1000","50.0514","1.1491"
"60.2000","50.1351","1.1500"
"60.3000","50.2189","1.1517"
"60.4000","50.3014","1.1530"
"60.5000","50.3838","1.1540"
"60.6000","50.4681","1.1557"
"60.7000","50.5507","1.1565"
"60.8000","50.6363","1.1581"
"60.9000","50.7178","1.1594"
"61.0000","50.8017","1.1605"
"61.1000","50.8853","1.1621"
"61.2000","50.9677","1.1630"
"61.3000","51.0522","1.1645"
"61.4000","51.1345","1.1656"
"61.5000","51.2188","1.1668"
"61.6000","51.3019","1.1685"
"61.7000","51.3840","1.1694"
"61.8000","51.4682","1.1709"
"61.9000","51.5509","1.1721"
"62.0000","51.6344","1.1732"
"62.1000","51.7194","1.1748"
"62.2000","51.8012","1.1758"
"62.3000","51.8856","1.1773"
"62.4000","51.9666","1.1784"
"62.5000","52.0511","1.1795"
"62.6000","52.1359","1.1810"
"62.7000","52.2188","1.1820"
"62.8000","52.3024","1.1835"
"62.9000","52.3838","1.1847"
"63.0000","52.4677","1.1857"
"63.1000","52.5515","1.1873"
"63.2000","52.6347","1.1882"
"63.3000","52.7192","1.1899"
"63.4000","52.8013","1.1911"
"63.5000","52.8837","1.1922"
"63.6000","52.9683","1.1938"
"63.7000","53.0510","1.1947"
"63.8000","53.1363","1.1961"
"63.9000","53.2177","1.1974"
"64.0000","53.3015","1.1984"
"64.1000","53.3849","1.1999"
"64.2000","53.4676","1.2009"
"64.3000","53.5523","1.2023"
"64.4000","53.6346","1.2034"
"64.5000","53.7185","1.2045"
"64.6000","53.8018","1.2062"
"64.7000","53.8841","1.2070"
"64.8000","53.9679","1.2085"
"64.9000","54.0509","1.2097"
"65.0000","54.1343","1.2107"
"65.1000","54.2194","1.2123"
"65.2000","54.3011","1.2133"
"65.3000","54.3856","1.2148"
"65.4000","54.4667","1.2159"
"65.5000","54.5511","1.2169"
"65.6000","54.6360","1.2185"
"65.7000","54.7185","1.2194"
"65.8000","54.8023","1.2209"
"65.9000","54.8835","1.2221"
"66.0000","54.9676","1.2230"
"66.1000","55.0518","1.2246"
"66.2000","55.1349","1.2254"
"66.3000","55.2190","1.2270"
"66.4000","55.3013","1.2282"
"66.5000","55.3836","1.2292"
"66.6000","55.4680","1.2308"
"66.7000","55.5507","1.2317"
"66.8000","55.6363","1.2331"
"66.9000","55.7177","1.2343"
"67.0000","55.8019","1.2353"
"67.1000","55.8851","1.2369"
"67.2000","55.9675","1.2376"
"67.3000","56.0520","1.2391"
"67.4000","56.1346","1.2402"
"67.5000","56.2186","1.2413"
"67.6000","56.3018","1.2429"
"67.7000","56.3846","1.2438"
"67.8000","56.4682","1.2452"
"67.9000","56.5511","1.2463"
"68.0000","56.6343","1.2473"
"68.1000","56.7192","1.2490"
"68.2000","56.8011","1.2498"
"68.3000","56.8857","1.2513"
"68.4000","56.9668","1.2524"
"68.5000","57.0512","1.2533"
"68.6000","57.1359","1.2548"
"68.7000","57.2188","1.2557"
"68.8000","57.3026","1.2572"
"68.9000","57.3837","1.2583"
"69.0000","57.4678","1.2592"
"69.1000","57.5517","1.2608"
"69.2000","57.6347","1.2616"
"69.3000","57.7189","1.2632"
"69.4000","57.8014","1.2643"
"69.5000","57.8840","1.2653"
"69.6000","57.9683","1.2668"
"69.7000","58.0508","1.2677"
"69.8000","58.1362","1.2690"
"69.9000","58.2178","1.2702"
"70.0000","58.3017","1.2712"
"70.1000","58.3852","1.2727"
"70.2000","58.4675","1.2735"
"70.3000","58.5523","1.2750"
"70.4000","58.6343","1.2761"
"70.5000","58.7188","1.2771"
"70.6000","58.8019","1.2787"
"70.7000","58.8840","1.2795"
"70.8000","58.9680","1.2809"
"70.9000","59.0508","1.2820"
"71.0000","59.1344","1.2830"
"71.1000","59.2190","1.2847"
"71.2000","59.3012","1.2855"
"71.3000","59.3854","1.2869"
"71.4000","59.4668","1.2880"
"71.5000","59.5513","1.2890"
"71.6000","59.6358","1.2905"
"71.7000","59.7187","1.2914"
"71.8000","59.8025","1.2929"
"71.9000","59.8836","1.2940"
"72.0000","59.9678","1.2949"
"72.1000","60.0516","1.2964"
"72.2000","60.1348","1.2973"
"72.3000","60.2189","1.2987"
"72.4000","60.3013","1.2999"
"72.5000","60.3840","1.3009"
"72.6000","60.4683","1.3024"
"72.7000","60.5508","1.3032"
"72.8000","60.6365","1.3047"
"72.9000","60.7180","1.3057"
"73.0000","60.8016","1.3068"
"73.1000","60.8851","1.3083"
"73.2000","60.9676","1.3091"
"73.3000","61.0522","1.3104"
"73.4000","61.1346","1.3115"
"73.5000","61.2190","1.3126"
"73.6000","61.3018","1.3141"
"73.7000","61.3844","1.3149"
"73.8000","61.4682","1.3163"
"73.9000","61.5512","1.3175"
"74.0000","61.6343","1.3183"
"74.1000","61.7194","1.3200"
"74.2000","61.8011","1.3207"
"74.3000","61.8856","1.3221"
"74.4000","61.9668","1.3232"
"74.5000","62.0511","1.3241"
"74.6000","62.1361","1.3256"
"74.7000","62.2186","1.3264"
"74.8000","62.3026","1.3279"
"74.9000","62.3836","1.3289"
"75.0000","62.4676","1.3298"
"75.1000","62.5516","1.3313"
"75.2000","62.6347","1.3321"
"75.3000","62.7190","1.3335"
"75.4000","62.8013","1.3347"
"75.5000","62.8839","1.3357"
"75.6000","62.9681","1.3372"
"75.7000","63.0511","1.3380"
"75.8000","63.1363","1.3393"
"75.9000","63.2177","1.3404"
"76.0000","63.3015","1.3414"
"76.1000","63.3852","1.3429"
"76.2000","63.4674","1.3436"
"76.3000","63.5517","1.3450"
"76.4000","63.6345","1.3461"
"76.5000","63.7187","1.3471"
"76.6000","63.8016","1.3486"
"76.7000","63.8843","1.3494"
"76.8000","63.9679","1.3507"
"76.9000","64.0508","1.3517"
"77.0000","64.1344","1.3527"
"77.1000","64.2193","1.3542"
"77.2000","64.3009","1.3551"
"77.3000","64.3857","1.3564"
"77.4000","64.4669","1.3574"
"77.5000","64.5514","1.3583"
"77.6000","64.6359","1.3598"
"77.7000","64.7185","1.3605"
"77.8000","64.8022","1.3620"
"77.9000","64.8835","1.3630"
"78.0000","64.9676","1.3639"
"78.1000","65.0516","1.3652"
"78.2000","65.1348","1.3661"
"78.3000","65.2190","1.3674"
"78.4000","65.3012","1.3685"
"78.5000","65.3840","1.3694"
"78.6000","65.4680","1.3707"
"78.7000","65.5509","1.3715"
"78.8000","65.6362","1.3728"
"78.9000","65.7178","1.3738"
"79.0000","65.8017","1.3748"
"79.1000","65.8854","1.3762"
"79.2000","65.9675","1.3769"
"79.3000","66.0522","1.3782"
"79.4000","66.1345","1.3792"
"79.5000","66.2190","1.3801"
"79.6000","66.3019","1.3816"
"79.7000","66.3843","1.3824"
"79.8000","66.4675","1.3836"
"79.9000","66.5509","1.3848"
"80.0000","66.6343","1.3855"
"80.1000","66.7195","1.3871"
"80.2000","66.8012","1.3878"
"80.3000","66.8856","1.3892"
"80.4000","66.9666","1.3901"
"80.5000","67.0514","1.3909"
"80.6000","67.1359","1.3923"
"80.7000","67.2187","1.3931"
"80.8000","67.3026","1.3944"
"80.9000","67.3837","1.3953"
"81.0000","67.4678","1.3962"
"81.1000","67.5516","1.3975"
"81.2000","67.6349","1.3982"
"81.3000","67.7190","1.3996"
"81.4000","67.8012","1.4006"
"81.5000","67.8837","1.4014"
"81.6000","67.9682","1.4028"
"81.7000","68.0506","1.4033"
"81.8000","68.1362","1.4046"
"81.9000","68.2179","1.4056"
"82.0000","68.3015","1.4063"
"82.1000","68.3850","1.4078"
"82.2000","68.4676","1.4083"
"82.3000","68.5520","1.4095"
"82.4000","68.6344","1.4103"
"82.5000","68.7185","1.4111"
"82.6000","68.8015","1.4125"
"82.7000","68.8841","1.4130"
"82.8000","68.9679","1.4142"
"82.9000","69.0509","1.4149"
"83.0000","69.1342","1.4155"
"83.1000","69.2194","1.4168"
"83.2000","69.3006","1.4173"
"83.3000","69.3856","1.4184"
"83.4000","69.4669","1.4190"
"83.5000","69.5516","1.4195"
"83.6000","69.6360","1.4205"
"83.7000","69.7187","1.4209"
"83.8000","69.8021","1.4218"
"83.9000","69.8834","1.4222"
"84.0000","69.9676","1.4224"
"84.1000","70.0516","1.4231"
"84.2000","70.1350","1.4229"
"84.3000","70.2191","1.4233"
"84.4000","70.3013","1.4232"
"84.5000","70.3838","1.4229"
"84.6000","70.4681","1.4228"
"84.7000","70.5508","1.4219"
"84.8000","70.6362","1.4211"
"84.9000","70.7177","1.4190"
"85.0000","70.8016","1.4128"
"85.1000","70.8852","1.2601"
"85.2000","70.9677","1.2246"
"85.3000","71.0522","1.2238"
"85.4000","71.1342","1.2251"
"85.5000","71.2189","1.2272"
"85.6000","71.3017","1.2304"
"85.7000","71.3842","1.2332"
"85.8000","71.4680","1.2367"
"85.9000","71.5510","1.2401"
"86.0000","71.6344","1.2434"
"86.1000","71.7191","1.2475"
"86.2000","71.8013","1.2509"
"86.3000","71.8856","1.2549"
"86.4000","71.9667","1.2586"
"86.5000","72.0513","1.2621"
"86.6000","72.1358","1.2663"
"86.7000","72.2187","1.2699"
"86.8000","72.3023","1.2740"
"86.9000","72.3836","1.2779"
"87.0000","72.4677","1.2815"
"87.1000","72.5515","1.2857"
"87.2000","72.6350","1.2894"
"87.3000","72.7188","1.2936"
"87.4000","72.8014","1.2975"
"87.5000","72.8837","1.3013"
"87.6000","72.9682","1.3056"
"87.7000","73.0507","1.3092"
"87.8000","73.1361","1.3133"
"87.9000","73.2174","1.3172"
"88.0000","73.3016","1.3211"
"88.1000","73.3853","1.3252"
"88.2000","73.4677","1.3287"
"88.3000","73.5519","1.3328"
"88.4000","73.6345","1.3366"
"88.5000","73.7188","1.3402"
"88.6000","73.8017","1.3445"
"88.7000","73.8840","1.3478"
"88.8000","73.9678","1.3519"
"88.9000","74.0509","1.3555"
"89.0000","74.1343","1.3589"
"89.1000","74.2194","1.3630"
"89.2000","74.3011","1.3662"
"89.3000","74.3853","1.3699"
"89.4000","74.4667","1.3733"
"89.5000","74.5511","1.3763"
"89.6000","74.6358","1.3801"
"89.7000","74.7185","1.3829"
"89.8000","74.8023","1.3864"
"89.9000","74.8834","1.3893"
"90.0000","74.9677","1.3920"
"90.1000","75.0516","1.3953"
"90.2000","75.1351","1.3977"
"90.3000","75.2188","1.4008"
"90.4000","75.3012","1.4034"
"90.5000","75.3839","1.4058"
"90.6000","75.4680","1.4086"
"90.7000","75.5508","1.4106"
"90.8000","75.6362","1.4131"
"90.9000","75.7179","1.4153"
"91.0000","75.8018","1.4173"
"91.1000","75.8848","1.4196"
"91.2000","75.9676","1.4212"
"91.3000","76.0521","1.4234"
"91.4000","76.1344","1.4252"
"91.5000","76.2188","1.4269"
"91.6000","76.3016","1.4291"
"91.7000","76.3841","1.4304"
"91.8000","76.4681","1.4323"
"91.9000","76.5509","1.4338"
"92.0000","76.6345","1.4353"
"92.1000","76.7193","1.4373"
"92.2000","76.8012","1.4386"
"92.3000","76.8856","1.4402"
"92.4000","76.9666","1.4416"
"92.5000","77.0512","1.4428"
"92.6000","77.1359","1.4446"
"92.7000","77.2185","1.4456"
"92.8000","77.3025","1.4474"
"92.9000","77.3840","1.4486"
"93.0000","77.4680","1.4496"
"93.1000","77.5516","1.4512"
"93.2000","77.6347","1.4522"
"93.3000","77.7190","1.4539"
"93.4000","77.8011","1.4551"
"93.5000","77.8837","1.4562"
"93.6000","77.9681","1.4577"
"93.7000","78.0505","1.4586"
"93.8000","78.1363","1.4601"
"93.9000","78.2178","1.4612"
"94.0000","78.3016","1.4623"
"94.1000","78.3850","1.4638"
"94.2000","78.4676","1.4646"
"94.3000","78.5522","1.4660"
"94.4000","78.6343","1.4671"
"94.5000","78.7187","1.4681"
"94.6000","78.8015","1.4696"
"94.7000","78.8842","1.4705"
"94.8000","78.9681","1.4719"
"94.9000","79.0509","1.4729"
"95.0000","79.1345","1.4739"
"95.1000","79.2192","1.4754"
"95.2000","79.3010","1.4762"
"95.3000","79.3857","1.4775"
"95.4000","79.4668","1.4786"
"95.5000","79.5513","1.4794"
"95.6000","79.6359","1.4809"
"95.7000","79.7187","1.4817"
"95.8000","79.8020","1.4832"
"95.9000","79.8836","1.4842"
"96.0000","79.9675","1.4851"
"96.1000","80.0519","1.4866"
"96.2000","80.1349","1.4873"
"96.3000","80.2190","1.4887"
"96.4000","80.3012","1.4899"
"96.5000","80.3839","1.4907"
"96.6000","80.4682","1.4921"
"96.7000","80.5510","1.4928"
"96.8000","80.6362","1.4941"
"96.9000","80.7182","1.4952"
"97.0000","80.8016","1.4961"
"97.1000","80.8854","1.4976"
"97.2000","80.9675","1.4982"
"97.3000","81.0521","1.4995"
"97.4000","81.1343","1.5005"
"97.5000","81.2188","1.5014"
"97.6000","81.3018","1.5028"
"97.7000","81.3842","1.5036"
"97.8000","81.4681","1.5049"
"97.9000","81.5511","1.5059"
"98.0000","81.6344","1.5067"
"98.1000","81.7191","1.5082"
"98.2000","81.8016","1.5090"
"98.3000","81.8860","1.5103"
"98.4000","81.9668","1.5111"
"98.5000","82.0514","1.5120"
"98.6000","82.1358","1.5133"
"98.7000","82.2186","1.5141"
"98.8000","82.3025","1.5154"
"98.9000","82.3838","1.5164"
"99.0000","82.4680","1.5172"
"99.1000","82.5515","1.5186"
"99.2000","82.6349","1.5193"
"99.3000","82.7190","1.5206"
"99.4000","82.8012","1.5217"
"99.5000","82.8840","1.5225"
"99.6000","82.9681","1.5240"
"99.7000","83.0511","1.5247"
"99.8000","83.1362","1.5260"
"99.9000","83.2177","1.5270"
"100.0000","83.3018","1.5280"
"100.1000","83.3851","1.5294"
"100.2000","83.4676","1.5301"
"100.3000","83.5522","1.5314"
"100.4000","83.6342","1.5324"
"100.5000","83.7188","1.5333"
"100.6000","83.8019","1.5349"
"100.7000","83.8842","1.5356"
"100.8000","83.9682","1.5369"
"100.9000","84.0509","1.5380"
"101.0000","84.1344","1.5389"
"101.1000","84.2193","1.5404"
"101.2000","84.3014","1.5412"
"101.3000","84.3854","1.5425"
"101.4000","84.4663","1.5435"
"101.5000","84.5514","1.5443"
"101.6000","84.6357","1.5457"
"101.7000","84.7186","1.5464"
"101.8000","84.8025","1.5478"
"101.9000","84.8832","1.5488"
"102.0000","84.9679","1.5496"
"102.1000","85.0517","1.5511"
"102.2000","85.1350","1.5517"
"102.3000","85.2192","1.5532"
"102.4000","85.3012","1.5542"
"102.5000","85.3837","1.5551"
"102.6000","85.4683","1.5565"
"102.7000","85.5509","1.5572"
"102.8000","85.6366","1.5585"
"102.9000","85.7178","1.5594"
"103.0000","85.8015","1.5604"
"103.1000","85.8848","1.5618"
"103.2000","85.9676","1.5624"
"103.3000","86.0520","1.5636"
"103.4000","86.1345","1.5646"
"103.5000","86.2189","1.5655"
"103.6000","86.3018","1.5669"
"103.7000","86.3841","1.5676"
"103.8000","86.4683","1.5689"
"103.9000","86.5508","1.5698"
"104.0000","86.6344","1.5706"
"104.1000","86.7191","1.5721"
"104.2000","86.8012","1.5728"
"104.3000","86.8857","1.5741"
"104.4000","86.9667","1.5751"
"104.5000","87.0512","1.5758"
"104.6000","87.1358","1.5772"
"104.7000","87.2185","1.5779"
"104.8000","87.3027","1.5792"
"104.9000","87.3837","1.5801"
"105.0000","87.4678","1.5809"
"105.1000","87.5516","1.5823"
"105.2000","87.6348","1.5829"
"105.3000","87.7188","1.5843"
"105.4000","87.8013","1.5855"
"105.5000","87.8839","1.5862"
"105.6000","87.9681","1.5876"
"105.7000","88.0510","1.5881"
"105.8000","88.1364","1.5894"
"105.9000","88.2177","1.5903"
"106.0000","88.3017","1.5912"
"106.1000","88.3851","1.5925"
"106.2000","88.4678","1.5931"
"106.3000","88.5522","1.5944"
"106.4000","88.6345","1.5954"
"106.5000","88.7186","1.5963"
"106.6000","88.8017","1.5977"
"106.7000","88.8844","1.5983"
"106.8000","88.9682","1.5997"
"106.9000","89.0510","1.6007"
"107.0000","89.1346","1.6014"
"107.1000","89.2191","1.6030"
"107.2000","89.3011","1.6037"
"107.3000","89.3854","1.6048"
"107.4000","89.4662","1.6058"
"107.5000","89.5512","1.6066"
"107.6000","89.6357","1.6079"
"107.7000","89.7189","1.6087"
"107.8000","89.8025","1.6100"
"107.9000","89.8835","1.6109"
"108.0000","89.9678","1.6116"
"108.1000","90.0513","1.6131"
"108.2000","90.1351","1.6138"
"108.3000","90.2190","1.6151"
"108.4000","90.3013","1.6162"
"108.5000","90.3839","1.6170"
"108.6000","90.4680","1.6184"
"108.7000","90.5511","1.6190"
"108.8000","90.6361","1.6203"
"108.9000","90.7178","1.6212"
"109.0000","90.8020","1.6221"
"109.1000","90.8849","1.6235"
"109.2000","90.9674","1.6241"
"109.3000","91.0521","1.6253"
"109.4000","91.1346","1.6262"
"109.5000","91.2186","1.6271"
"109.6000","91.3018","1.6285"
"109.7000","91.3843","1.6292"
"109.8000","91.4680","1.6304"
"109.9000","91.5511","1.6314"
"110.0000","91.6346","1.6321"
"110.1000","91.7191","1.6336"
"110.2000","91.8013","1.6344"
"110.3000","91.8856","1.6356"
"110.4000","91.9667","1.6365"
"110.5000","92.0512","1.6373"
"110.6000","92.1358","1.6387"
"110.7000","92.2188","1.6394"
"110.8000","92.3025","1.6407"
"110.9000","92.3835","1.6417"
"111.0000","92.4681","1.6425"
"111.1000","92.5514","1.6438"
"111.2000","92.6347","1.6446"
"111.3000","92.7191","1.6459"
"111.4000","92.8014","1.6469"
"111.5000","92.8839","1.6477"
"111.6000","92.9682","1.6491"
"111.7000","93.0508","1.6498"
"111.8000","93.1361","1.6511"
"111.9000","93.2174","1.6520"
"112.0000","93.3018","1.6530"
"112.1000","93.3851","1.6543"
"112.2000","93.4676","1.6548"
"112.3000","93.5521","1.6560"
"112.4000","93.6344","1.6571"
"112.5000","93.7188","1.6580"
"112.6000","93.8016","1.6594"
"112.7000","93.8841","1.6601"
"112.8000","93.9680","1.6614"
"112.9000","94.0508","1.6624"
"113.0000","94.1345","1.6633"
"113.1000","94.2194","1.6647"
"113.2000","94.3014","1.6654"
"113.3000","94.3856","1.6667"
"113.4000","94.4667","1.6677"
"113.5000","94.5512","1.6684"
"113.6000","94.6358","1.6697"
"113.7000","94.7188","1.6705"
"113.8000","94.8024","1.6717"
"113.9000","94.8834","1.6727"
"114.0000","94.9677","1.6734"
"114.1000","95.0513","1.6748"
"114.2000","95.1350","1.6754"
"114.3000","95.2193","1.6767"
"114.4000","95.3013","1.6766"
"114.4260","95.3253","0.9864"